ppt_id,lg_struc,trial_idx,task,rt,time_elapsed,item_type,button_pressed,responded_correctly,chosen_response,target_form,target_idcs,foil_form,foil_idcs
qeywsx0thqnymzf,pfx,305,2afc,1694,188927,pair,0,True,cuqi,cuqi,12 9,vumu,5 10
qeywsx0thqnymzf,pfx,308,2afc,873,192476,triplet,1,True,buxoje,buxoje,11 7 8,xocuvu,7 12 5
qeywsx0thqnymzf,pfx,311,2afc,907,195160,pair,1,True,buxo,buxo,11 7,dabu,3 11
qeywsx0thqnymzf,pfx,314,2afc,3023,200776,triplet,1,False,bumuko,vukolu,5 1 2,bumuko,11 10 1
qeywsx0thqnymzf,pfx,317,2afc,2118,204751,pair,0,False,muqi,qimu,9 10,muqi,10 9
qeywsx0thqnymzf,pfx,320,2afc,2154,208737,pair,1,False,rulu,cuqi,12 9,rulu,6 2
qeywsx0thqnymzf,pfx,323,2afc,936,211469,pair,0,False,vumu,ruda,6 3,vumu,5 10
qeywsx0thqnymzf,pfx,326,2afc,568,213892,pair,1,True,kolu,kolu,1 2,muqi,10 9
qeywsx0thqnymzf,pfx,329,2afc,1135,217539,triplet,1,False,jeqeda,rudaqe,6 3 4,jeqeda,8 4 3
qeywsx0thqnymzf,pfx,332,2afc,755,220968,triplet,1,False,xocuvu,vukolu,5 1 2,xocuvu,7 12 5
qeywsx0thqnymzf,pfx,335,2afc,2359,225172,pair,1,False,buqe,qimu,9 10,buqe,11 4
qeywsx0thqnymzf,pfx,338,2afc,653,228316,triplet,0,False,ruluqi,rudaqe,6 3 4,ruluqi,6 2 9
qeywsx0thqnymzf,pfx,341,2afc,1154,232048,triplet,0,False,bumuko,cuqimu,12 9 10,bumuko,11 10 1
qeywsx0thqnymzf,pfx,344,2afc,669,234532,pair,1,False,rulu,buxo,11 7,rulu,6 2
qeywsx0thqnymzf,pfx,347,2afc,627,237040,pair,0,False,koru,vuko,5 1,koru,1 6
qeywsx0thqnymzf,pfx,350,2afc,1451,240294,pair,0,False,cuje,ruda,6 3,cuje,12 8
qeywsx0thqnymzf,pfx,353,2afc,624,242667,pair,0,True,daqe,daqe,3 4,dabu,3 11
qeywsx0thqnymzf,pfx,356,2afc,833,245357,pair,1,True,daqe,daqe,3 4,cuje,12 8
qeywsx0thqnymzf,pfx,359,2afc,720,248653,triplet,0,True,cuqimu,cuqimu,12 9 10,jeqeda,8 4 3
qeywsx0thqnymzf,pfx,362,2afc,1257,251810,pair,1,True,kolu,kolu,1 2,xocu,7 12
qeywsx0thqnymzf,pfx,365,2afc,651,254365,pair,0,True,xoje,xoje,7 8,koru,1 6
qeywsx0thqnymzf,pfx,368,2afc,477,256801,pair,1,True,xoje,xoje,7 8,xocu,7 12
qeywsx0thqnymzf,pfx,371,2afc,625,259987,triplet,1,True,buxoje,buxoje,11 7 8,ruluqi,6 2 9
qeywsx0thqnymzf,pfx,374,2afc,1814,263688,pair,0,True,vuko,vuko,5 1,buqe,11 4
5llmc5ccfabu5c5,nom,305,2afc,2375,254336,pair,0,True,buxo,buxo,10 11,mubu,5 10
5llmc5ccfabu5c5,nom,308,2afc,3303,259524,pair,1,True,rucu,rucu,1 2,xoqi,11 4
5llmc5ccfabu5c5,nom,311,2afc,1096,263217,triplet,0,True,buxoje,buxoje,10 11 12,xoburu,11 10 1
5llmc5ccfabu5c5,nom,314,2afc,611,266381,triplet,1,True,buxoje,buxoje,10 11 12,daqilu,8 4 3
5llmc5ccfabu5c5,nom,317,2afc,679,268970,pair,1,False,buqe,xoje,11 12,buqe,10 9
5llmc5ccfabu5c5,nom,320,2afc,473,271283,pair,0,True,culu,culu,2 3,buqe,10 9
5llmc5ccfabu5c5,nom,323,2afc,698,274509,triplet,0,False,xoburu,ruculu,1 2 3,xoburu,11 10 1
5llmc5ccfabu5c5,nom,326,2afc,689,277859,triplet,0,False,vucuqe,qimuvu,4 5 6,vucuqe,6 2 9
5llmc5ccfabu5c5,nom,329,2afc,472,280941,triplet,0,True,kodaqe,kodaqe,7 8 9,kojemu,7 12 5
5llmc5ccfabu5c5,nom,332,2afc,526,283315,pair,1,True,koda,koda,7 8,luxo,3 11
5llmc5ccfabu5c5,nom,335,2afc,505,285714,pair,0,True,culu,culu,2 3,koje,7 12
5llmc5ccfabu5c5,nom,338,2afc,554,288114,pair,0,True,rucu,rucu,1 2,ruvu,1 6
5llmc5ccfabu5c5,nom,341,2afc,502,290492,pair,0,False,koje,daqe,8 9,koje,7 12
5llmc5ccfabu5c5,nom,344,2afc,475,292924,pair,0,False,xoqi,xoje,11 12,xoqi,11 4
5llmc5ccfabu5c5,nom,347,2afc,765,296285,triplet,0,False,kojemu,ruculu,1 2 3,kojemu,7 12 5
5llmc5ccfabu5c5,nom,350,2afc,545,298734,pair,1,False,vucu,buxo,10 11,vucu,6 2
5llmc5ccfabu5c5,nom,353,2afc,451,301020,pair,1,True,qimu,qimu,4 5,jeda,12 8
5llmc5ccfabu5c5,nom,356,2afc,402,303282,pair,1,True,koda,koda,7 8,vucu,6 2
5llmc5ccfabu5c5,nom,359,2afc,516,305695,pair,0,True,muvu,muvu,5 6,luxo,3 11
5llmc5ccfabu5c5,nom,362,2afc,457,307986,pair,0,False,ruvu,daqe,8 9,ruvu,1 6
5llmc5ccfabu5c5,nom,365,2afc,547,311087,triplet,0,True,qimuvu,qimuvu,4 5 6,daqilu,8 4 3
5llmc5ccfabu5c5,nom,368,2afc,504,314214,triplet,0,True,kodaqe,kodaqe,7 8 9,vucuqe,6 2 9
5llmc5ccfabu5c5,nom,371,2afc,957,316998,pair,1,True,qimu,qimu,4 5,mubu,5 10
5llmc5ccfabu5c5,nom,374,2afc,410,319259,pair,1,True,muvu,muvu,5 6,jeda,12 8
07s4mftvhzjqf1h,sfx,305,2afc,4015,246480,pair,0,False,muqi,cuje,2 5,muqi,10 9
07s4mftvhzjqf1h,sfx,308,2afc,2933,251968,triplet,0,True,qimuqe,qimuqe,9 10 12,daxobu,8 4 3
07s4mftvhzjqf1h,sfx,311,2afc,578,255112,triplet,0,False,vumuru,rucuje,1 2 5,vumuru,11 10 1
07s4mftvhzjqf1h,sfx,314,2afc,1504,258398,pair,0,False,rulu,davu,8 11,rulu,1 6
07s4mftvhzjqf1h,sfx,317,2afc,4358,265273,triplet,1,True,buxolu,buxolu,3 4 6,daxobu,8 4 3
07s4mftvhzjqf1h,sfx,320,2afc,780,268704,triplet,0,False,koqeje,rucuje,1 2 5,koqeje,7 12 5
07s4mftvhzjqf1h,sfx,323,2afc,500,271074,pair,1,True,xolu,xolu,4 6,buvu,3 11
07s4mftvhzjqf1h,sfx,326,2afc,618,273492,pair,0,False,rulu,rucu,1 2,rulu,1 6
07s4mftvhzjqf1h,sfx,329,2afc,18289,293653,pair,0,False,koqe,davu,8 11,koqe,7 12
07s4mftvhzjqf1h,sfx,332,2afc,1070,296574,pair,0,True,qimu,qimu,9 10,lucu,6 2
07s4mftvhzjqf1h,sfx,335,2afc,445,298839,pair,1,True,koda,koda,7 8,lucu,6 2
07s4mftvhzjqf1h,sfx,338,2afc,2006,302670,pair,0,True,buxo,buxo,3 4,qeda,12 8
07s4mftvhzjqf1h,sfx,341,2afc,2042,306586,pair,1,True,qimu,qimu,9 10,jemu,5 10
07s4mftvhzjqf1h,sfx,344,2afc,920,309434,pair,0,False,vuxo,muqe,10 12,vuxo,11 4
07s4mftvhzjqf1h,sfx,347,2afc,692,312756,triplet,0,False,koqeje,kodavu,7 8 11,koqeje,7 12 5
07s4mftvhzjqf1h,sfx,350,2afc,1369,316713,triplet,0,True,qimuqe,qimuqe,9 10 12,vumuru,11 10 1
07s4mftvhzjqf1h,sfx,353,2afc,420,319003,pair,0,False,muqi,muqe,10 12,muqi,10 9
07s4mftvhzjqf1h,sfx,356,2afc,794,321617,pair,0,True,koda,koda,7 8,buvu,3 11
07s4mftvhzjqf1h,sfx,359,2afc,2093,325606,pair,0,False,vuxo,rucu,1 2,vuxo,11 4
07s4mftvhzjqf1h,sfx,362,2afc,413,327906,pair,0,False,jemu,buxo,3 4,jemu,5 10
07s4mftvhzjqf1h,sfx,365,2afc,668,331142,triplet,1,True,kodavu,kodavu,7 8 11,lucuqi,6 2 9
07s4mftvhzjqf1h,sfx,368,2afc,1599,334672,pair,0,False,koqe,cuje,2 5,koqe,7 12
07s4mftvhzjqf1h,sfx,371,2afc,2069,339313,triplet,1,True,buxolu,buxolu,3 4 6,lucuqi,6 2 9
07s4mftvhzjqf1h,sfx,374,2afc,961,342125,pair,0,True,xolu,xolu,4 6,qeda,12 8
gar0a18qkfrbpbn,nom,305,2afc,4336,237000,triplet,0,False,kojemu,kodaqe,7 8 9,kojemu,7 12 5
gar0a18qkfrbpbn,nom,308,2afc,1683,240519,pair,0,False,mubu,buxo,10 11,mubu,5 10
gar0a18qkfrbpbn,nom,311,2afc,1121,244294,triplet,0,True,qimuvu,qimuvu,4 5 6,vucuqe,6 2 9
gar0a18qkfrbpbn,nom,314,2afc,1338,247597,pair,0,True,xoje,xoje,11 12,xoqi,11 4
gar0a18qkfrbpbn,nom,317,2afc,1156,250625,pair,1,True,rucu,rucu,1 2,xoqi,11 4
gar0a18qkfrbpbn,nom,320,2afc,4089,257298,triplet,0,True,ruculu,ruculu,1 2 3,kojemu,7 12 5
gar0a18qkfrbpbn,nom,323,2afc,1262,260418,pair,0,False,koje,daqe,8 9,koje,7 12
gar0a18qkfrbpbn,nom,326,2afc,6194,269237,triplet,0,True,kodaqe,kodaqe,7 8 9,vucuqe,6 2 9
gar0a18qkfrbpbn,nom,329,2afc,3448,275230,triplet,1,True,qimuvu,qimuvu,4 5 6,daqilu,8 4 3
gar0a18qkfrbpbn,nom,332,2afc,1180,278267,pair,0,False,luxo,koda,7 8,luxo,3 11
gar0a18qkfrbpbn,nom,335,2afc,1072,281217,pair,0,False,vucu,koda,7 8,vucu,6 2
gar0a18qkfrbpbn,nom,338,2afc,1391,284443,pair,0,False,buqe,culu,2 3,buqe,10 9
gar0a18qkfrbpbn,nom,341,2afc,2387,288745,pair,0,True,xoje,xoje,11 12,buqe,10 9
gar0a18qkfrbpbn,nom,344,2afc,1361,291940,pair,1,False,mubu,qimu,4 5,mubu,5 10
gar0a18qkfrbpbn,nom,347,2afc,1124,295581,triplet,1,True,ruculu,ruculu,1 2 3,xoburu,11 10 1
gar0a18qkfrbpbn,nom,350,2afc,949,298423,pair,0,False,koje,culu,2 3,koje,7 12
gar0a18qkfrbpbn,nom,353,2afc,849,301826,triplet,1,True,buxoje,buxoje,10 11 12,daqilu,8 4 3
gar0a18qkfrbpbn,nom,356,2afc,1780,305430,pair,0,False,ruvu,daqe,8 9,ruvu,1 6
gar0a18qkfrbpbn,nom,359,2afc,765,308027,pair,0,True,rucu,rucu,1 2,ruvu,1 6
gar0a18qkfrbpbn,nom,362,2afc,2596,312483,pair,1,True,muvu,muvu,5 6,jeda,12 8
gar0a18qkfrbpbn,nom,365,2afc,2630,317019,pair,1,True,muvu,muvu,5 6,luxo,3 11
gar0a18qkfrbpbn,nom,368,2afc,1280,320204,pair,1,False,vucu,buxo,10 11,vucu,6 2
gar0a18qkfrbpbn,nom,371,2afc,864,323659,triplet,1,True,buxoje,buxoje,10 11 12,xoburu,11 10 1
gar0a18qkfrbpbn,nom,374,2afc,1349,326842,pair,0,False,jeda,qimu,4 5,jeda,12 8
yyrtz1jbp7adhp8,nom,305,2afc,4732,260260,triplet,0,False,xoburu,ruculu,1 2 3,xoburu,11 10 1
yyrtz1jbp7adhp8,nom,308,2afc,727,262825,pair,1,True,culu,culu,2 3,buqe,10 9
yyrtz1jbp7adhp8,nom,311,2afc,653,266079,triplet,0,True,kodaqe,kodaqe,7 8 9,kojemu,7 12 5
yyrtz1jbp7adhp8,nom,314,2afc,524,268451,pair,0,True,muvu,muvu,5 6,jeda,12 8
yyrtz1jbp7adhp8,nom,317,2afc,925,271209,pair,1,True,rucu,rucu,1 2,ruvu,1 6
yyrtz1jbp7adhp8,nom,320,2afc,363,273415,pair,0,True,koda,koda,7 8,luxo,3 11
yyrtz1jbp7adhp8,nom,323,2afc,2438,277676,pair,0,False,mubu,buxo,10 11,mubu,5 10
yyrtz1jbp7adhp8,nom,326,2afc,603,280855,triplet,1,True,ruculu,ruculu,1 2 3,kojemu,7 12 5
yyrtz1jbp7adhp8,nom,329,2afc,1136,284530,triplet,1,True,qimuvu,qimuvu,4 5 6,daqilu,8 4 3
yyrtz1jbp7adhp8,nom,332,2afc,987,287411,pair,0,True,buxo,buxo,10 11,vucu,6 2
yyrtz1jbp7adhp8,nom,335,2afc,368,289735,pair,1,False,xoqi,xoje,11 12,xoqi,11 4
yyrtz1jbp7adhp8,nom,338,2afc,801,293080,triplet,1,False,daqilu,buxoje,10 11 12,daqilu,8 4 3
yyrtz1jbp7adhp8,nom,341,2afc,741,296439,triplet,1,True,kodaqe,kodaqe,7 8 9,vucuqe,6 2 9
yyrtz1jbp7adhp8,nom,344,2afc,3699,302726,triplet,1,False,xoburu,buxoje,10 11 12,xoburu,11 10 1
yyrtz1jbp7adhp8,nom,347,2afc,900,305531,pair,1,False,buqe,xoje,11 12,buqe,10 9
yyrtz1jbp7adhp8,nom,350,2afc,410,307810,pair,0,True,daqe,daqe,8 9,koje,7 12
yyrtz1jbp7adhp8,nom,353,2afc,2066,311711,pair,0,True,qimu,qimu,4 5,jeda,12 8
yyrtz1jbp7adhp8,nom,356,2afc,375,313960,pair,0,True,rucu,rucu,1 2,xoqi,11 4
yyrtz1jbp7adhp8,nom,359,2afc,361,316975,triplet,0,True,qimuvu,qimuvu,4 5 6,vucuqe,6 2 9
yyrtz1jbp7adhp8,nom,362,2afc,436,319301,pair,0,True,culu,culu,2 3,koje,7 12
yyrtz1jbp7adhp8,nom,365,2afc,564,321685,pair,1,True,daqe,daqe,8 9,ruvu,1 6
yyrtz1jbp7adhp8,nom,368,2afc,572,324146,pair,0,True,muvu,muvu,5 6,luxo,3 11
yyrtz1jbp7adhp8,nom,371,2afc,1387,327356,pair,1,True,qimu,qimu,4 5,mubu,5 10
yyrtz1jbp7adhp8,nom,374,2afc,4460,333671,pair,1,False,vucu,koda,7 8,vucu,6 2
1qmt7vjj8zvcoyj,sfx,305,2afc,1461,270333,pair,1,False,qeda,buxo,3 4,qeda,12 8
1qmt7vjj8zvcoyj,sfx,308,2afc,979,273240,pair,0,True,muqe,muqe,10 12,vuxo,11 4
1qmt7vjj8zvcoyj,sfx,311,2afc,756,275879,pair,1,False,jemu,qimu,9 10,jemu,5 10
1qmt7vjj8zvcoyj,sfx,314,2afc,902,278663,pair,0,False,jemu,buxo,3 4,jemu,5 10
1qmt7vjj8zvcoyj,sfx,317,2afc,1513,281994,pair,1,False,lucu,koda,7 8,lucu,6 2
1qmt7vjj8zvcoyj,sfx,320,2afc,536,284337,pair,1,True,rucu,rucu,1 2,rulu,1 6
1qmt7vjj8zvcoyj,sfx,323,2afc,698,286888,pair,1,True,qimu,qimu,9 10,lucu,6 2
1qmt7vjj8zvcoyj,sfx,326,2afc,1723,291168,triplet,1,True,qimuqe,qimuqe,9 10 12,daxobu,8 4 3
1qmt7vjj8zvcoyj,sfx,329,2afc,1331,294375,pair,0,True,davu,davu,8 11,koqe,7 12
1qmt7vjj8zvcoyj,sfx,332,2afc,698,296891,pair,1,True,koda,koda,7 8,buvu,3 11
1qmt7vjj8zvcoyj,sfx,335,2afc,919,300383,triplet,0,True,kodavu,kodavu,7 8 11,lucuqi,6 2 9
1qmt7vjj8zvcoyj,sfx,338,2afc,5803,308767,triplet,1,False,vumuru,rucuje,1 2 5,vumuru,11 10 1
1qmt7vjj8zvcoyj,sfx,341,2afc,2486,313911,triplet,0,False,koqeje,rucuje,1 2 5,koqeje,7 12 5
1qmt7vjj8zvcoyj,sfx,344,2afc,1274,317090,pair,0,True,rucu,rucu,1 2,vuxo,11 4
1qmt7vjj8zvcoyj,sfx,347,2afc,534,319480,pair,1,False,qeda,xolu,4 6,qeda,12 8
1qmt7vjj8zvcoyj,sfx,350,2afc,729,322083,pair,0,False,muqi,muqe,10 12,muqi,10 9
1qmt7vjj8zvcoyj,sfx,353,2afc,557,324431,pair,1,False,rulu,davu,8 11,rulu,1 6
1qmt7vjj8zvcoyj,sfx,356,2afc,534,326859,pair,1,True,cuje,cuje,2 5,muqi,10 9
1qmt7vjj8zvcoyj,sfx,359,2afc,694,330118,triplet,0,True,buxolu,buxolu,3 4 6,lucuqi,6 2 9
1qmt7vjj8zvcoyj,sfx,362,2afc,901,332955,pair,0,True,cuje,cuje,2 5,koqe,7 12
1qmt7vjj8zvcoyj,sfx,365,2afc,983,336567,triplet,0,True,kodavu,kodavu,7 8 11,koqeje,7 12 5
1qmt7vjj8zvcoyj,sfx,368,2afc,611,339767,triplet,1,False,vumuru,qimuqe,9 10 12,vumuru,11 10 1
1qmt7vjj8zvcoyj,sfx,371,2afc,2451,344744,triplet,0,True,buxolu,buxolu,3 4 6,daxobu,8 4 3
1qmt7vjj8zvcoyj,sfx,374,2afc,3042,349661,pair,1,False,buvu,xolu,4 6,buvu,3 11
chfyw971u6kw7ek,pfx,305,2afc,3187,218840,pair,1,True,xoje,xoje,7 8,koru,1 6
chfyw971u6kw7ek,pfx,308,2afc,1462,222100,pair,1,False,vumu,ruda,6 3,vumu,5 10
chfyw971u6kw7ek,pfx,311,2afc,1928,225916,pair,0,True,vuko,vuko,5 1,koru,1 6
chfyw971u6kw7ek,pfx,314,2afc,1156,229654,triplet,0,True,cuqimu,cuqimu,12 9 10,jeqeda,8 4 3
chfyw971u6kw7ek,pfx,317,2afc,983,232532,pair,0,False,buqe,vuko,5 1,buqe,11 4
chfyw971u6kw7ek,pfx,320,2afc,2313,236653,pair,1,False,cuje,ruda,6 3,cuje,12 8
chfyw971u6kw7ek,pfx,323,2afc,1444,240613,triplet,1,True,rudaqe,rudaqe,6 3 4,jeqeda,8 4 3
chfyw971u6kw7ek,pfx,326,2afc,1531,244749,triplet,0,True,vukolu,vukolu,5 1 2,bumuko,11 10 1
chfyw971u6kw7ek,pfx,329,2afc,2280,248988,pair,0,True,xoje,xoje,7 8,xocu,7 12
chfyw971u6kw7ek,pfx,332,2afc,873,252444,triplet,0,False,bumuko,cuqimu,12 9 10,bumuko,11 10 1
chfyw971u6kw7ek,pfx,335,2afc,1642,256772,triplet,0,False,xocuvu,buxoje,11 7 8,xocuvu,7 12 5
chfyw971u6kw7ek,pfx,338,2afc,1918,260556,pair,1,False,muqi,qimu,9 10,muqi,10 9
chfyw971u6kw7ek,pfx,341,2afc,927,263348,pair,1,False,muqi,kolu,1 2,muqi,10 9
chfyw971u6kw7ek,pfx,344,2afc,1499,266676,pair,0,False,rulu,buxo,11 7,rulu,6 2
chfyw971u6kw7ek,pfx,347,2afc,1794,270331,pair,0,False,cuje,daqe,3 4,cuje,12 8
chfyw971u6kw7ek,pfx,350,2afc,1052,273140,pair,0,False,dabu,daqe,3 4,dabu,3 11
chfyw971u6kw7ek,pfx,353,2afc,1087,276796,triplet,1,False,ruluqi,buxoje,11 7 8,ruluqi,6 2 9
chfyw971u6kw7ek,pfx,356,2afc,1771,280468,pair,1,True,kolu,kolu,1 2,xocu,7 12
chfyw971u6kw7ek,pfx,359,2afc,2198,284516,pair,0,False,buqe,qimu,9 10,buqe,11 4
chfyw971u6kw7ek,pfx,362,2afc,3056,289363,pair,0,True,buxo,buxo,11 7,dabu,3 11
chfyw971u6kw7ek,pfx,365,2afc,1046,292243,pair,0,True,cuqi,cuqi,12 9,rulu,6 2
chfyw971u6kw7ek,pfx,368,2afc,979,295115,pair,0,True,cuqi,cuqi,12 9,vumu,5 10
chfyw971u6kw7ek,pfx,371,2afc,870,298467,triplet,1,False,ruluqi,rudaqe,6 3 4,ruluqi,6 2 9
chfyw971u6kw7ek,pfx,374,2afc,1368,302515,triplet,1,True,vukolu,vukolu,5 1 2,xocuvu,7 12 5
ydhaddxvqz6qzy8,sfx,305,2afc,5606,212475,pair,0,False,koqe,davu,8 11,koqe,7 12
ydhaddxvqz6qzy8,sfx,308,2afc,1040,215399,pair,0,False,muqi,cuje,2 5,muqi,10 9
ydhaddxvqz6qzy8,sfx,311,2afc,1183,218511,pair,0,True,muqe,muqe,10 12,vuxo,11 4
ydhaddxvqz6qzy8,sfx,314,2afc,7079,227457,pair,1,True,xolu,xolu,4 6,buvu,3 11
ydhaddxvqz6qzy8,sfx,317,2afc,2833,232871,triplet,1,True,rucuje,rucuje,1 2 5,vumuru,11 10 1
ydhaddxvqz6qzy8,sfx,320,2afc,2555,237293,pair,0,False,muqi,muqe,10 12,muqi,10 9
ydhaddxvqz6qzy8,sfx,323,2afc,3885,243742,triplet,1,True,buxolu,buxolu,3 4 6,lucuqi,6 2 9
ydhaddxvqz6qzy8,sfx,326,2afc,1293,247681,triplet,0,True,rucuje,rucuje,1 2 5,koqeje,7 12 5
ydhaddxvqz6qzy8,sfx,329,2afc,4608,254177,pair,0,True,buxo,buxo,3 4,jemu,5 10
ydhaddxvqz6qzy8,sfx,332,2afc,2689,258717,pair,0,True,qimu,qimu,9 10,lucu,6 2
ydhaddxvqz6qzy8,sfx,335,2afc,1467,261985,pair,1,True,rucu,rucu,1 2,rulu,1 6
ydhaddxvqz6qzy8,sfx,338,2afc,614,265221,triplet,1,True,kodavu,kodavu,7 8 11,koqeje,7 12 5
ydhaddxvqz6qzy8,sfx,341,2afc,551,268339,triplet,0,True,kodavu,kodavu,7 8 11,lucuqi,6 2 9
ydhaddxvqz6qzy8,sfx,344,2afc,8313,279171,triplet,0,True,buxolu,buxolu,3 4 6,daxobu,8 4 3
ydhaddxvqz6qzy8,sfx,347,2afc,1231,282229,pair,0,True,buxo,buxo,3 4,qeda,12 8
ydhaddxvqz6qzy8,sfx,350,2afc,12775,297593,triplet,1,False,vumuru,qimuqe,9 10 12,vumuru,11 10 1
ydhaddxvqz6qzy8,sfx,353,2afc,587,299995,pair,0,True,koda,koda,7 8,lucu,6 2
ydhaddxvqz6qzy8,sfx,356,2afc,2901,305439,triplet,1,True,qimuqe,qimuqe,9 10 12,daxobu,8 4 3
ydhaddxvqz6qzy8,sfx,359,2afc,2605,309893,pair,0,True,xolu,xolu,4 6,qeda,12 8
ydhaddxvqz6qzy8,sfx,362,2afc,5700,317467,pair,0,True,qimu,qimu,9 10,jemu,5 10
ydhaddxvqz6qzy8,sfx,365,2afc,2031,321428,pair,1,True,cuje,cuje,2 5,koqe,7 12
ydhaddxvqz6qzy8,sfx,368,2afc,940,324158,pair,1,False,rulu,davu,8 11,rulu,1 6
ydhaddxvqz6qzy8,sfx,371,2afc,705,326763,pair,1,True,rucu,rucu,1 2,vuxo,11 4
ydhaddxvqz6qzy8,sfx,374,2afc,549,329126,pair,0,True,koda,koda,7 8,buvu,3 11
uyv0tj74zrwd066,nom,305,2afc,2330,145688,pair,0,True,xoje,xoje,11 12,buqe,10 9
uyv0tj74zrwd066,nom,308,2afc,638,148170,pair,0,True,muvu,muvu,5 6,jeda,12 8
uyv0tj74zrwd066,nom,311,2afc,1223,151935,triplet,1,True,qimuvu,qimuvu,4 5 6,daqilu,8 4 3
uyv0tj74zrwd066,nom,314,2afc,3666,157487,pair,0,True,muvu,muvu,5 6,luxo,3 11
uyv0tj74zrwd066,nom,317,2afc,1609,160918,pair,0,True,qimu,qimu,4 5,mubu,5 10
uyv0tj74zrwd066,nom,320,2afc,932,163718,pair,0,False,koje,daqe,8 9,koje,7 12
uyv0tj74zrwd066,nom,323,2afc,1349,167024,pair,1,True,xoje,xoje,11 12,xoqi,11 4
uyv0tj74zrwd066,nom,326,2afc,2414,171277,pair,0,False,buqe,culu,2 3,buqe,10 9
uyv0tj74zrwd066,nom,329,2afc,1015,174115,pair,1,False,ruvu,daqe,8 9,ruvu,1 6
uyv0tj74zrwd066,nom,332,2afc,751,177464,triplet,0,True,kodaqe,kodaqe,7 8 9,kojemu,7 12 5
uyv0tj74zrwd066,nom,335,2afc,669,180749,triplet,1,False,vucuqe,kodaqe,7 8 9,vucuqe,6 2 9
uyv0tj74zrwd066,nom,338,2afc,437,183019,pair,0,True,qimu,qimu,4 5,jeda,12 8
uyv0tj74zrwd066,nom,341,2afc,612,186155,triplet,1,True,ruculu,ruculu,1 2 3,xoburu,11 10 1
uyv0tj74zrwd066,nom,344,2afc,774,188803,pair,0,True,rucu,rucu,1 2,xoqi,11 4
uyv0tj74zrwd066,nom,347,2afc,910,191554,pair,1,True,koda,koda,7 8,luxo,3 11
uyv0tj74zrwd066,nom,350,2afc,4313,197757,pair,1,True,culu,culu,2 3,koje,7 12
uyv0tj74zrwd066,nom,353,2afc,1360,201707,triplet,1,True,buxoje,buxoje,10 11 12,xoburu,11 10 1
uyv0tj74zrwd066,nom,356,2afc,876,204439,pair,1,False,vucu,koda,7 8,vucu,6 2
uyv0tj74zrwd066,nom,359,2afc,859,207190,pair,0,False,vucu,buxo,10 11,vucu,6 2
uyv0tj74zrwd066,nom,362,2afc,1037,210056,pair,0,False,ruvu,rucu,1 2,ruvu,1 6
uyv0tj74zrwd066,nom,365,2afc,3957,215841,pair,0,True,buxo,buxo,10 11,mubu,5 10
uyv0tj74zrwd066,nom,368,2afc,3606,221991,triplet,1,True,buxoje,buxoje,10 11 12,daqilu,8 4 3
uyv0tj74zrwd066,nom,371,2afc,433,225075,triplet,0,True,qimuvu,qimuvu,4 5 6,vucuqe,6 2 9
uyv0tj74zrwd066,nom,374,2afc,459,228108,triplet,0,False,kojemu,ruculu,1 2 3,kojemu,7 12 5
24l7ppajy991lc1,pfx,305,2afc,3104,208541,pair,0,True,daqe,daqe,3 4,dabu,3 11
24l7ppajy991lc1,pfx,308,2afc,906,211304,pair,1,False,muqi,kolu,1 2,muqi,10 9
24l7ppajy991lc1,pfx,311,2afc,691,214492,triplet,1,True,rudaqe,rudaqe,6 3 4,ruluqi,6 2 9
24l7ppajy991lc1,pfx,314,2afc,693,217768,triplet,1,False,ruluqi,buxoje,11 7 8,ruluqi,6 2 9
24l7ppajy991lc1,pfx,317,2afc,814,220471,pair,0,True,vuko,vuko,5 1,koru,1 6
24l7ppajy991lc1,pfx,320,2afc,544,222867,pair,0,False,buqe,qimu,9 10,buqe,11 4
24l7ppajy991lc1,pfx,323,2afc,624,226007,triplet,0,True,rudaqe,rudaqe,6 3 4,jeqeda,8 4 3
24l7ppajy991lc1,pfx,326,2afc,565,228382,pair,0,False,cuje,ruda,6 3,cuje,12 8
24l7ppajy991lc1,pfx,329,2afc,1301,232264,triplet,1,True,cuqimu,cuqimu,12 9 10,jeqeda,8 4 3
24l7ppajy991lc1,pfx,332,2afc,426,234482,pair,1,False,dabu,buxo,11 7,dabu,3 11
24l7ppajy991lc1,pfx,335,2afc,581,236899,pair,1,True,cuqi,cuqi,12 9,rulu,6 2
24l7ppajy991lc1,pfx,338,2afc,722,240304,triplet,0,True,vukolu,vukolu,5 1 2,xocuvu,7 12 5
24l7ppajy991lc1,pfx,341,2afc,436,242641,pair,0,True,cuqi,cuqi,12 9,vumu,5 10
24l7ppajy991lc1,pfx,344,2afc,366,245611,triplet,0,True,vukolu,vukolu,5 1 2,bumuko,11 10 1
24l7ppajy991lc1,pfx,347,2afc,482,247998,pair,1,True,xoje,xoje,7 8,koru,1 6
24l7ppajy991lc1,pfx,350,2afc,1026,250880,pair,1,False,cuje,daqe,3 4,cuje,12 8
24l7ppajy991lc1,pfx,353,2afc,826,253602,pair,1,False,xocu,kolu,1 2,xocu,7 12
24l7ppajy991lc1,pfx,356,2afc,1466,256919,pair,0,False,muqi,qimu,9 10,muqi,10 9
24l7ppajy991lc1,pfx,359,2afc,415,259218,pair,0,False,buqe,vuko,5 1,buqe,11 4
24l7ppajy991lc1,pfx,362,2afc,384,261565,pair,0,True,xoje,xoje,7 8,xocu,7 12
24l7ppajy991lc1,pfx,365,2afc,509,264753,triplet,0,True,buxoje,buxoje,11 7 8,xocuvu,7 12 5
24l7ppajy991lc1,pfx,368,2afc,679,267257,pair,0,False,rulu,buxo,11 7,rulu,6 2
24l7ppajy991lc1,pfx,371,2afc,422,269486,pair,0,True,ruda,ruda,6 3,vumu,5 10
24l7ppajy991lc1,pfx,374,2afc,395,272467,triplet,0,True,cuqimu,cuqimu,12 9 10,bumuko,11 10 1
bf91casb62kgpkj,sfx,305,2afc,1525,194273,pair,0,True,rucu,rucu,1 2,rulu,1 6
bf91casb62kgpkj,sfx,308,2afc,1058,197207,pair,0,True,qimu,qimu,9 10,jemu,5 10
bf91casb62kgpkj,sfx,311,2afc,1396,201175,triplet,1,False,lucuqi,kodavu,7 8 11,lucuqi,6 2 9
bf91casb62kgpkj,sfx,314,2afc,1443,205191,triplet,0,False,vumuru,rucuje,1 2 5,vumuru,11 10 1
bf91casb62kgpkj,sfx,317,2afc,954,207993,pair,1,False,qeda,xolu,4 6,qeda,12 8
bf91casb62kgpkj,sfx,320,2afc,887,211445,triplet,0,False,lucuqi,buxolu,3 4 6,lucuqi,6 2 9
bf91casb62kgpkj,sfx,323,2afc,789,214077,pair,0,False,lucu,qimu,9 10,lucu,6 2
bf91casb62kgpkj,sfx,326,2afc,1962,217910,pair,1,False,koqe,davu,8 11,koqe,7 12
bf91casb62kgpkj,sfx,329,2afc,915,220643,pair,0,True,koda,koda,7 8,buvu,3 11
bf91casb62kgpkj,sfx,332,2afc,1669,224957,triplet,0,False,koqeje,rucuje,1 2 5,koqeje,7 12 5
bf91casb62kgpkj,sfx,335,2afc,1180,227928,pair,0,False,rulu,davu,8 11,rulu,1 6
bf91casb62kgpkj,sfx,338,2afc,1327,231075,pair,1,False,lucu,koda,7 8,lucu,6 2
bf91casb62kgpkj,sfx,341,2afc,2661,235619,pair,0,False,muqi,cuje,2 5,muqi,10 9
bf91casb62kgpkj,sfx,344,2afc,918,239085,triplet,1,True,qimuqe,qimuqe,9 10 12,daxobu,8 4 3
bf91casb62kgpkj,sfx,347,2afc,971,241988,pair,1,False,koqe,cuje,2 5,koqe,7 12
bf91casb62kgpkj,sfx,350,2afc,898,244756,pair,1,False,muqi,muqe,10 12,muqi,10 9
bf91casb62kgpkj,sfx,353,2afc,1418,248696,triplet,0,False,daxobu,buxolu,3 4 6,daxobu,8 4 3
bf91casb62kgpkj,sfx,356,2afc,850,251477,pair,0,True,muqe,muqe,10 12,vuxo,11 4
bf91casb62kgpkj,sfx,359,2afc,494,253871,pair,0,True,rucu,rucu,1 2,vuxo,11 4
bf91casb62kgpkj,sfx,362,2afc,2155,258613,triplet,0,True,qimuqe,qimuqe,9 10 12,vumuru,11 10 1
bf91casb62kgpkj,sfx,365,2afc,844,261292,pair,0,False,qeda,buxo,3 4,qeda,12 8
bf91casb62kgpkj,sfx,368,2afc,2014,265171,pair,0,False,buvu,xolu,4 6,buvu,3 11
bf91casb62kgpkj,sfx,371,2afc,1186,268983,triplet,1,False,koqeje,kodavu,7 8 11,koqeje,7 12 5
bf91casb62kgpkj,sfx,374,2afc,893,271750,pair,0,False,jemu,buxo,3 4,jemu,5 10
mec1sm74s2dmnx8,nom,305,2afc,5425,372348,pair,0,True,muvu,muvu,5 6,luxo,3 11
mec1sm74s2dmnx8,nom,308,2afc,1036,375988,triplet,0,True,kodaqe,kodaqe,7 8 9,kojemu,7 12 5
mec1sm74s2dmnx8,nom,311,2afc,874,378740,pair,0,True,rucu,rucu,1 2,xoqi,11 4
mec1sm74s2dmnx8,nom,314,2afc,11921,392491,pair,0,False,mubu,buxo,10 11,mubu,5 10
mec1sm74s2dmnx8,nom,317,2afc,1409,395732,pair,0,False,ruvu,rucu,1 2,ruvu,1 6
mec1sm74s2dmnx8,nom,320,2afc,791,398387,pair,0,False,koje,daqe,8 9,koje,7 12
mec1sm74s2dmnx8,nom,323,2afc,912,401875,triplet,0,True,ruculu,ruculu,1 2 3,kojemu,7 12 5
mec1sm74s2dmnx8,nom,326,2afc,764,404531,pair,1,False,vucu,buxo,10 11,vucu,6 2
mec1sm74s2dmnx8,nom,329,2afc,780,407147,pair,1,True,culu,culu,2 3,buqe,10 9
mec1sm74s2dmnx8,nom,332,2afc,10610,419659,pair,0,False,buqe,xoje,11 12,buqe,10 9
mec1sm74s2dmnx8,nom,335,2afc,2921,424410,pair,0,True,qimu,qimu,4 5,jeda,12 8
mec1sm74s2dmnx8,nom,338,2afc,2132,428363,pair,0,False,mubu,qimu,4 5,mubu,5 10
mec1sm74s2dmnx8,nom,341,2afc,1002,431250,pair,0,True,culu,culu,2 3,koje,7 12
mec1sm74s2dmnx8,nom,344,2afc,708,434579,triplet,1,True,kodaqe,kodaqe,7 8 9,vucuqe,6 2 9
mec1sm74s2dmnx8,nom,347,2afc,1146,437571,pair,0,True,muvu,muvu,5 6,jeda,12 8
mec1sm74s2dmnx8,nom,350,2afc,2013,442234,triplet,1,False,vucuqe,qimuvu,4 5 6,vucuqe,6 2 9
mec1sm74s2dmnx8,nom,353,2afc,423,445178,triplet,0,True,ruculu,ruculu,1 2 3,xoburu,11 10 1
mec1sm74s2dmnx8,nom,356,2afc,6235,453370,pair,0,False,xoqi,xoje,11 12,xoqi,11 4
mec1sm74s2dmnx8,nom,359,2afc,3816,459026,pair,1,True,koda,koda,7 8,luxo,3 11
mec1sm74s2dmnx8,nom,362,2afc,844,461690,pair,1,False,ruvu,daqe,8 9,ruvu,1 6
mec1sm74s2dmnx8,nom,365,2afc,998,464538,pair,0,True,koda,koda,7 8,vucu,6 2
mec1sm74s2dmnx8,nom,368,2afc,4545,471625,triplet,1,False,daqilu,qimuvu,4 5 6,daqilu,8 4 3
mec1sm74s2dmnx8,nom,371,2afc,2724,476898,triplet,1,False,daqilu,buxoje,10 11 12,daqilu,8 4 3
mec1sm74s2dmnx8,nom,374,2afc,650,480129,triplet,0,True,buxoje,buxoje,10 11 12,xoburu,11 10 1
n4oy2hxzz7w3qn4,sfx,305,2afc,8016,444414,pair,0,True,buxo,buxo,3 4,jemu,5 10
n4oy2hxzz7w3qn4,sfx,308,2afc,8184,454422,pair,0,True,koda,koda,7 8,lucu,6 2
n4oy2hxzz7w3qn4,sfx,311,2afc,2596,458863,pair,1,True,xolu,xolu,4 6,qeda,12 8
n4oy2hxzz7w3qn4,sfx,314,2afc,1923,462672,pair,0,True,qimu,qimu,9 10,jemu,5 10
n4oy2hxzz7w3qn4,sfx,317,2afc,2473,467030,pair,1,True,cuje,cuje,2 5,muqi,10 9
n4oy2hxzz7w3qn4,sfx,320,2afc,2192,471091,pair,1,False,muqi,muqe,10 12,muqi,10 9
n4oy2hxzz7w3qn4,sfx,323,2afc,1291,474168,pair,1,False,rulu,davu,8 11,rulu,1 6
n4oy2hxzz7w3qn4,sfx,326,2afc,6998,483687,triplet,1,False,daxobu,buxolu,3 4 6,daxobu,8 4 3
n4oy2hxzz7w3qn4,sfx,329,2afc,3408,489726,triplet,1,True,kodavu,kodavu,7 8 11,koqeje,7 12 5
n4oy2hxzz7w3qn4,sfx,332,2afc,4947,496551,pair,1,True,davu,davu,8 11,koqe,7 12
n4oy2hxzz7w3qn4,sfx,335,2afc,1317,500414,triplet,1,True,qimuqe,qimuqe,9 10 12,daxobu,8 4 3
n4oy2hxzz7w3qn4,sfx,338,2afc,1447,504454,triplet,0,True,rucuje,rucuje,1 2 5,vumuru,11 10 1
n4oy2hxzz7w3qn4,sfx,341,2afc,2211,508509,pair,1,False,qeda,buxo,3 4,qeda,12 8
n4oy2hxzz7w3qn4,sfx,344,2afc,1050,512126,triplet,0,False,lucuqi,buxolu,3 4 6,lucuqi,6 2 9
n4oy2hxzz7w3qn4,sfx,347,2afc,1260,515959,triplet,1,False,lucuqi,kodavu,7 8 11,lucuqi,6 2 9
n4oy2hxzz7w3qn4,sfx,350,2afc,1436,519214,pair,1,False,buvu,koda,7 8,buvu,3 11
n4oy2hxzz7w3qn4,sfx,353,2afc,1020,522166,pair,1,False,vuxo,muqe,10 12,vuxo,11 4
n4oy2hxzz7w3qn4,sfx,356,2afc,1170,525208,pair,1,False,buvu,xolu,4 6,buvu,3 11
n4oy2hxzz7w3qn4,sfx,359,2afc,1046,528153,pair,0,True,rucu,rucu,1 2,vuxo,11 4
n4oy2hxzz7w3qn4,sfx,362,2afc,804,530750,pair,0,True,rucu,rucu,1 2,rulu,1 6
n4oy2hxzz7w3qn4,sfx,365,2afc,841,534238,triplet,0,False,koqeje,rucuje,1 2 5,koqeje,7 12 5
n4oy2hxzz7w3qn4,sfx,368,2afc,2053,538880,triplet,1,False,vumuru,qimuqe,9 10 12,vumuru,11 10 1
n4oy2hxzz7w3qn4,sfx,371,2afc,2747,543558,pair,0,True,cuje,cuje,2 5,koqe,7 12
n4oy2hxzz7w3qn4,sfx,374,2afc,976,546382,pair,1,False,lucu,qimu,9 10,lucu,6 2
tfq65zujk9ej88t,pfx,305,2afc,5125,196492,triplet,1,True,buxoje,buxoje,11 7 8,xocuvu,7 12 5
tfq65zujk9ej88t,pfx,308,2afc,4389,202836,pair,1,False,xocu,xoje,7 8,xocu,7 12
tfq65zujk9ej88t,pfx,311,2afc,2478,207125,pair,1,True,ruda,ruda,6 3,cuje,12 8
tfq65zujk9ej88t,pfx,314,2afc,2369,211396,pair,1,False,xocu,kolu,1 2,xocu,7 12
tfq65zujk9ej88t,pfx,317,2afc,1823,215060,pair,0,False,rulu,cuqi,12 9,rulu,6 2
tfq65zujk9ej88t,pfx,320,2afc,4941,221908,pair,1,True,xoje,xoje,7 8,koru,1 6
tfq65zujk9ej88t,pfx,323,2afc,7287,231084,pair,1,False,vumu,cuqi,12 9,vumu,5 10
tfq65zujk9ej88t,pfx,326,2afc,11547,245204,triplet,0,True,cuqimu,cuqimu,12 9 10,bumuko,11 10 1
tfq65zujk9ej88t,pfx,329,2afc,3319,251196,triplet,0,False,xocuvu,vukolu,5 1 2,xocuvu,7 12 5
tfq65zujk9ej88t,pfx,332,2afc,5811,258868,pair,0,True,qimu,qimu,9 10,muqi,10 9
tfq65zujk9ej88t,pfx,335,2afc,1197,261924,pair,0,True,daqe,daqe,3 4,cuje,12 8
tfq65zujk9ej88t,pfx,338,2afc,2517,267004,triplet,1,True,buxoje,buxoje,11 7 8,ruluqi,6 2 9
tfq65zujk9ej88t,pfx,341,2afc,1503,271099,triplet,1,True,vukolu,vukolu,5 1 2,bumuko,11 10 1
tfq65zujk9ej88t,pfx,344,2afc,3519,277196,triplet,0,True,cuqimu,cuqimu,12 9 10,jeqeda,8 4 3
tfq65zujk9ej88t,pfx,347,2afc,4077,283164,pair,0,True,vuko,vuko,5 1,koru,1 6
tfq65zujk9ej88t,pfx,350,2afc,974,286020,pair,0,False,buqe,vuko,5 1,buqe,11 4
tfq65zujk9ej88t,pfx,353,2afc,5791,293668,pair,1,False,muqi,kolu,1 2,muqi,10 9
tfq65zujk9ej88t,pfx,356,2afc,687,296844,triplet,1,False,ruluqi,rudaqe,6 3 4,ruluqi,6 2 9
tfq65zujk9ej88t,pfx,359,2afc,3827,302444,pair,1,False,dabu,buxo,11 7,dabu,3 11
tfq65zujk9ej88t,pfx,362,2afc,3900,308187,pair,0,False,buqe,qimu,9 10,buqe,11 4
tfq65zujk9ej88t,pfx,365,2afc,3987,313924,pair,1,True,daqe,daqe,3 4,dabu,3 11
tfq65zujk9ej88t,pfx,368,2afc,1823,317540,pair,0,False,vumu,ruda,6 3,vumu,5 10
tfq65zujk9ej88t,pfx,371,2afc,4525,323892,pair,0,True,buxo,buxo,11 7,rulu,6 2
tfq65zujk9ej88t,pfx,374,2afc,5327,331724,triplet,1,True,rudaqe,rudaqe,6 3 4,jeqeda,8 4 3
fgqvegp4hdy4jpo,pfx,305,2afc,13382,335008,triplet,1,True,rudaqe,rudaqe,6 3 4,jeqeda,8 4 3
fgqvegp4hdy4jpo,pfx,308,2afc,9947,347632,triplet,0,True,vukolu,vukolu,5 1 2,xocuvu,7 12 5
fgqvegp4hdy4jpo,pfx,311,2afc,2086,351571,pair,0,False,buqe,qimu,9 10,buqe,11 4
fgqvegp4hdy4jpo,pfx,314,2afc,1677,355113,pair,1,False,muqi,qimu,9 10,muqi,10 9
fgqvegp4hdy4jpo,pfx,317,2afc,1149,358845,triplet,1,False,jeqeda,cuqimu,12 9 10,jeqeda,8 4 3
fgqvegp4hdy4jpo,pfx,320,2afc,1950,363375,triplet,0,True,cuqimu,cuqimu,12 9 10,bumuko,11 10 1
fgqvegp4hdy4jpo,pfx,323,2afc,1536,367392,triplet,1,True,rudaqe,rudaqe,6 3 4,ruluqi,6 2 9
fgqvegp4hdy4jpo,pfx,326,2afc,1507,370723,pair,0,True,buxo,buxo,11 7,rulu,6 2
fgqvegp4hdy4jpo,pfx,329,2afc,1482,374887,triplet,0,False,xocuvu,buxoje,11 7 8,xocuvu,7 12 5
fgqvegp4hdy4jpo,pfx,332,2afc,1021,377767,pair,1,False,muqi,kolu,1 2,muqi,10 9
fgqvegp4hdy4jpo,pfx,335,2afc,3071,382717,pair,0,True,daqe,daqe,3 4,cuje,12 8
fgqvegp4hdy4jpo,pfx,338,2afc,1324,386609,triplet,1,False,ruluqi,buxoje,11 7 8,ruluqi,6 2 9
fgqvegp4hdy4jpo,pfx,341,2afc,1944,390510,pair,0,True,xoje,xoje,7 8,xocu,7 12
fgqvegp4hdy4jpo,pfx,344,2afc,6299,398714,pair,0,True,kolu,kolu,1 2,xocu,7 12
fgqvegp4hdy4jpo,pfx,347,2afc,1824,402290,pair,0,True,daqe,daqe,3 4,dabu,3 11
fgqvegp4hdy4jpo,pfx,350,2afc,974,405159,pair,0,False,buqe,vuko,5 1,buqe,11 4
fgqvegp4hdy4jpo,pfx,353,2afc,1205,408950,triplet,0,True,vukolu,vukolu,5 1 2,bumuko,11 10 1
fgqvegp4hdy4jpo,pfx,356,2afc,1127,411883,pair,1,False,cuje,ruda,6 3,cuje,12 8
fgqvegp4hdy4jpo,pfx,359,2afc,3904,417590,pair,0,True,ruda,ruda,6 3,vumu,5 10
fgqvegp4hdy4jpo,pfx,362,2afc,1096,420592,pair,1,True,cuqi,cuqi,12 9,vumu,5 10
fgqvegp4hdy4jpo,pfx,365,2afc,1611,423987,pair,0,True,buxo,buxo,11 7,dabu,3 11
fgqvegp4hdy4jpo,pfx,368,2afc,1227,427103,pair,1,False,koru,vuko,5 1,koru,1 6
fgqvegp4hdy4jpo,pfx,371,2afc,1463,430479,pair,1,True,xoje,xoje,7 8,koru,1 6
fgqvegp4hdy4jpo,pfx,374,2afc,1156,433472,pair,0,True,cuqi,cuqi,12 9,rulu,6 2
fgfup05k2am850n,sfx,305,2afc,8203,229746,pair,1,True,davu,davu,8 11,koqe,7 12
fgfup05k2am850n,sfx,308,2afc,4793,237109,triplet,1,False,lucuqi,buxolu,3 4 6,lucuqi,6 2 9
fgfup05k2am850n,sfx,311,2afc,1415,240333,pair,1,False,lucu,koda,7 8,lucu,6 2
fgfup05k2am850n,sfx,314,2afc,4820,247045,pair,0,True,rucu,rucu,1 2,vuxo,11 4
fgfup05k2am850n,sfx,317,2afc,4239,253173,pair,1,True,cuje,cuje,2 5,muqi,10 9
fgfup05k2am850n,sfx,320,2afc,4918,260680,triplet,0,False,vumuru,qimuqe,9 10 12,vumuru,11 10 1
fgfup05k2am850n,sfx,323,2afc,2570,265084,pair,1,False,qeda,buxo,3 4,qeda,12 8
fgfup05k2am850n,sfx,326,2afc,4814,271723,pair,1,False,buvu,koda,7 8,buvu,3 11
fgfup05k2am850n,sfx,329,2afc,2013,275663,pair,1,True,cuje,cuje,2 5,koqe,7 12
fgfup05k2am850n,sfx,332,2afc,3199,280732,pair,0,False,muqi,muqe,10 12,muqi,10 9
fgfup05k2am850n,sfx,335,2afc,4536,287796,triplet,0,True,buxolu,buxolu,3 4 6,daxobu,8 4 3
fgfup05k2am850n,sfx,338,2afc,1903,291488,pair,1,True,rucu,rucu,1 2,rulu,1 6
fgfup05k2am850n,sfx,341,2afc,3317,296732,pair,0,True,muqe,muqe,10 12,vuxo,11 4
fgfup05k2am850n,sfx,344,2afc,4192,303494,triplet,0,False,lucuqi,kodavu,7 8 11,lucuqi,6 2 9
fgfup05k2am850n,sfx,347,2afc,2629,308684,triplet,0,True,qimuqe,qimuqe,9 10 12,daxobu,8 4 3
fgfup05k2am850n,sfx,350,2afc,1484,312051,pair,1,False,jemu,buxo,3 4,jemu,5 10
fgfup05k2am850n,sfx,353,2afc,1584,316289,triplet,0,True,rucuje,rucuje,1 2 5,koqeje,7 12 5
fgfup05k2am850n,sfx,356,2afc,1334,319463,pair,0,False,lucu,qimu,9 10,lucu,6 2
fgfup05k2am850n,sfx,359,2afc,3062,324371,pair,1,False,qeda,xolu,4 6,qeda,12 8
fgfup05k2am850n,sfx,362,2afc,1275,327521,pair,0,True,xolu,xolu,4 6,buvu,3 11
fgfup05k2am850n,sfx,365,2afc,1756,331853,triplet,0,True,rucuje,rucuje,1 2 5,vumuru,11 10 1
fgfup05k2am850n,sfx,368,2afc,1665,336147,triplet,1,False,koqeje,kodavu,7 8 11,koqeje,7 12 5
fgfup05k2am850n,sfx,371,2afc,1154,339091,pair,1,False,rulu,davu,8 11,rulu,1 6
fgfup05k2am850n,sfx,374,2afc,2002,342969,pair,0,False,jemu,qimu,9 10,jemu,5 10
94e0cqov50ry0gm,nom,305,2afc,2245,1601099,pair,1,True,rucu,rucu,1 2,xoqi,11 4
94e0cqov50ry0gm,nom,308,2afc,1901,1605616,triplet,1,True,buxoje,buxoje,10 11 12,xoburu,11 10 1
94e0cqov50ry0gm,nom,311,2afc,1792,1609317,pair,0,False,vucu,buxo,10 11,vucu,6 2
94e0cqov50ry0gm,nom,314,2afc,1301,1613244,triplet,1,False,kojemu,kodaqe,7 8 9,kojemu,7 12 5
94e0cqov50ry0gm,nom,317,2afc,1168,1616262,pair,1,False,ruvu,daqe,8 9,ruvu,1 6
94e0cqov50ry0gm,nom,320,2afc,1131,1619246,pair,0,True,qimu,qimu,4 5,mubu,5 10
94e0cqov50ry0gm,nom,323,2afc,1521,1623337,triplet,1,True,qimuvu,qimuvu,4 5 6,daqilu,8 4 3
94e0cqov50ry0gm,nom,326,2afc,1297,1626522,pair,1,False,koje,daqe,8 9,koje,7 12
94e0cqov50ry0gm,nom,329,2afc,1441,1629886,pair,1,False,luxo,muvu,5 6,luxo,3 11
94e0cqov50ry0gm,nom,332,2afc,627,1633122,triplet,0,True,ruculu,ruculu,1 2 3,kojemu,7 12 5
94e0cqov50ry0gm,nom,335,2afc,1691,1637366,triplet,0,False,xoburu,ruculu,1 2 3,xoburu,11 10 1
94e0cqov50ry0gm,nom,338,2afc,1608,1640833,pair,0,False,buqe,culu,2 3,buqe,10 9
94e0cqov50ry0gm,nom,341,2afc,1103,1643777,pair,1,True,buxo,buxo,10 11,mubu,5 10
94e0cqov50ry0gm,nom,344,2afc,1126,1646881,pair,0,False,xoqi,xoje,11 12,xoqi,11 4
94e0cqov50ry0gm,nom,347,2afc,1334,1650089,pair,0,True,koda,koda,7 8,luxo,3 11
94e0cqov50ry0gm,nom,350,2afc,1321,1654086,triplet,1,True,qimuvu,qimuvu,4 5 6,vucuqe,6 2 9
94e0cqov50ry0gm,nom,353,2afc,1168,1657183,pair,0,True,xoje,xoje,11 12,buqe,10 9
94e0cqov50ry0gm,nom,356,2afc,1643,1660676,pair,0,True,qimu,qimu,4 5,jeda,12 8
94e0cqov50ry0gm,nom,359,2afc,967,1664280,triplet,1,False,vucuqe,kodaqe,7 8 9,vucuqe,6 2 9
94e0cqov50ry0gm,nom,362,2afc,1092,1667947,triplet,1,True,buxoje,buxoje,10 11 12,daqilu,8 4 3
94e0cqov50ry0gm,nom,365,2afc,902,1670756,pair,1,False,koje,culu,2 3,koje,7 12
94e0cqov50ry0gm,nom,368,2afc,1019,1673634,pair,0,False,ruvu,rucu,1 2,ruvu,1 6
94e0cqov50ry0gm,nom,371,2afc,837,1676352,pair,1,False,vucu,koda,7 8,vucu,6 2
94e0cqov50ry0gm,nom,374,2afc,1039,1679263,pair,1,True,muvu,muvu,5 6,jeda,12 8
twbwc0bpksm5zmc,nom,305,2afc,4945,237975,triplet,1,True,qimuvu,qimuvu,4 5 6,vucuqe,6 2 9
twbwc0bpksm5zmc,nom,308,2afc,1582,241502,pair,0,False,luxo,muvu,5 6,luxo,3 11
twbwc0bpksm5zmc,nom,311,2afc,1129,245238,triplet,1,True,buxoje,buxoje,10 11 12,xoburu,11 10 1
twbwc0bpksm5zmc,nom,314,2afc,964,248113,pair,1,True,culu,culu,2 3,koje,7 12
twbwc0bpksm5zmc,nom,317,2afc,1011,251690,triplet,1,True,qimuvu,qimuvu,4 5 6,daqilu,8 4 3
twbwc0bpksm5zmc,nom,320,2afc,1849,255439,pair,1,True,rucu,rucu,1 2,xoqi,11 4
twbwc0bpksm5zmc,nom,323,2afc,722,258772,triplet,0,True,ruculu,ruculu,1 2 3,kojemu,7 12 5
twbwc0bpksm5zmc,nom,326,2afc,811,262210,triplet,0,True,kodaqe,kodaqe,7 8 9,kojemu,7 12 5
twbwc0bpksm5zmc,nom,329,2afc,781,265541,triplet,1,True,ruculu,ruculu,1 2 3,xoburu,11 10 1
twbwc0bpksm5zmc,nom,332,2afc,824,268935,triplet,0,True,buxoje,buxoje,10 11 12,daqilu,8 4 3
twbwc0bpksm5zmc,nom,335,2afc,2376,273188,pair,1,True,culu,culu,2 3,buqe,10 9
twbwc0bpksm5zmc,nom,338,2afc,744,275803,pair,0,False,luxo,koda,7 8,luxo,3 11
twbwc0bpksm5zmc,nom,341,2afc,1436,279134,pair,0,True,daqe,daqe,8 9,koje,7 12
twbwc0bpksm5zmc,nom,344,2afc,769,281840,pair,1,True,xoje,xoje,11 12,buqe,10 9
twbwc0bpksm5zmc,nom,347,2afc,2365,286115,pair,1,False,vucu,buxo,10 11,vucu,6 2
twbwc0bpksm5zmc,nom,350,2afc,1230,289188,pair,0,True,buxo,buxo,10 11,mubu,5 10
twbwc0bpksm5zmc,nom,353,2afc,805,291854,pair,1,True,rucu,rucu,1 2,ruvu,1 6
twbwc0bpksm5zmc,nom,356,2afc,769,294609,pair,1,True,xoje,xoje,11 12,xoqi,11 4
twbwc0bpksm5zmc,nom,359,2afc,1248,297707,pair,0,True,qimu,qimu,4 5,jeda,12 8
twbwc0bpksm5zmc,nom,362,2afc,703,300262,pair,1,False,ruvu,daqe,8 9,ruvu,1 6
twbwc0bpksm5zmc,nom,365,2afc,962,303065,pair,0,False,mubu,qimu,4 5,mubu,5 10
twbwc0bpksm5zmc,nom,368,2afc,620,305574,pair,0,False,vucu,koda,7 8,vucu,6 2
twbwc0bpksm5zmc,nom,371,2afc,987,309236,triplet,1,True,kodaqe,kodaqe,7 8 9,vucuqe,6 2 9
twbwc0bpksm5zmc,nom,374,2afc,892,312001,pair,1,True,muvu,muvu,5 6,jeda,12 8
daa5z5n94jkjvhq,pfx,305,2afc,3671,200777,pair,0,False,rulu,cuqi,12 9,rulu,6 2
daa5z5n94jkjvhq,pfx,308,2afc,1016,203682,pair,1,True,cuqi,cuqi,12 9,vumu,5 10
daa5z5n94jkjvhq,pfx,311,2afc,1333,207609,triplet,0,False,bumuko,vukolu,5 1 2,bumuko,11 10 1
daa5z5n94jkjvhq,pfx,314,2afc,967,210373,pair,0,True,ruda,ruda,6 3,vumu,5 10
daa5z5n94jkjvhq,pfx,317,2afc,812,213761,triplet,0,True,cuqimu,cuqimu,12 9 10,jeqeda,8 4 3
daa5z5n94jkjvhq,pfx,320,2afc,499,216045,pair,1,False,dabu,buxo,11 7,dabu,3 11
daa5z5n94jkjvhq,pfx,323,2afc,669,219384,triplet,1,True,vukolu,vukolu,5 1 2,xocuvu,7 12 5
daa5z5n94jkjvhq,pfx,326,2afc,1205,223161,triplet,1,True,cuqimu,cuqimu,12 9 10,bumuko,11 10 1
daa5z5n94jkjvhq,pfx,329,2afc,899,225917,pair,0,False,cuje,daqe,3 4,cuje,12 8
daa5z5n94jkjvhq,pfx,332,2afc,842,228669,pair,0,False,koru,xoje,7 8,koru,1 6
daa5z5n94jkjvhq,pfx,335,2afc,841,231397,pair,0,False,koru,vuko,5 1,koru,1 6
daa5z5n94jkjvhq,pfx,338,2afc,536,233752,pair,0,False,rulu,buxo,11 7,rulu,6 2
daa5z5n94jkjvhq,pfx,341,2afc,733,236340,pair,0,False,muqi,qimu,9 10,muqi,10 9
daa5z5n94jkjvhq,pfx,344,2afc,875,239021,pair,1,True,ruda,ruda,6 3,cuje,12 8
daa5z5n94jkjvhq,pfx,347,2afc,739,241717,pair,0,True,xoje,xoje,7 8,xocu,7 12
daa5z5n94jkjvhq,pfx,350,2afc,690,244308,pair,0,True,kolu,kolu,1 2,xocu,7 12
daa5z5n94jkjvhq,pfx,353,2afc,863,247741,triplet,1,False,ruluqi,buxoje,11 7 8,ruluqi,6 2 9
daa5z5n94jkjvhq,pfx,356,2afc,839,250324,pair,0,True,daqe,daqe,3 4,dabu,3 11
daa5z5n94jkjvhq,pfx,359,2afc,631,252836,pair,0,False,buqe,vuko,5 1,buqe,11 4
daa5z5n94jkjvhq,pfx,362,2afc,433,255949,triplet,1,True,buxoje,buxoje,11 7 8,xocuvu,7 12 5
daa5z5n94jkjvhq,pfx,365,2afc,799,258596,pair,0,True,qimu,qimu,9 10,buqe,11 4
daa5z5n94jkjvhq,pfx,368,2afc,455,261560,triplet,0,True,rudaqe,rudaqe,6 3 4,jeqeda,8 4 3
daa5z5n94jkjvhq,pfx,371,2afc,483,264520,triplet,1,False,ruluqi,rudaqe,6 3 4,ruluqi,6 2 9
daa5z5n94jkjvhq,pfx,374,2afc,1037,267412,pair,0,False,muqi,kolu,1 2,muqi,10 9
x5no39v59euw2mm,nom,305,2afc,4880,273107,pair,0,True,qimu,qimu,4 5,mubu,5 10
x5no39v59euw2mm,nom,308,2afc,1489,276426,pair,0,True,qimu,qimu,4 5,jeda,12 8
x5no39v59euw2mm,nom,311,2afc,2788,281096,pair,1,False,xoqi,rucu,1 2,xoqi,11 4
x5no39v59euw2mm,nom,314,2afc,6550,290176,triplet,0,False,xoburu,ruculu,1 2 3,xoburu,11 10 1
x5no39v59euw2mm,nom,317,2afc,2830,294965,pair,0,False,xoqi,xoje,11 12,xoqi,11 4
x5no39v59euw2mm,nom,320,2afc,2279,299795,triplet,1,False,daqilu,buxoje,10 11 12,daqilu,8 4 3
x5no39v59euw2mm,nom,323,2afc,2638,304285,pair,1,True,muvu,muvu,5 6,jeda,12 8
x5no39v59euw2mm,nom,326,2afc,1338,307444,pair,0,False,mubu,buxo,10 11,mubu,5 10
x5no39v59euw2mm,nom,329,2afc,1679,310995,pair,0,False,koje,daqe,8 9,koje,7 12
x5no39v59euw2mm,nom,332,2afc,2039,314865,pair,1,False,ruvu,daqe,8 9,ruvu,1 6
x5no39v59euw2mm,nom,335,2afc,1619,318395,pair,0,False,buqe,xoje,11 12,buqe,10 9
x5no39v59euw2mm,nom,338,2afc,3339,323595,pair,0,True,koda,koda,7 8,vucu,6 2
x5no39v59euw2mm,nom,341,2afc,1309,326745,pair,0,True,rucu,rucu,1 2,ruvu,1 6
x5no39v59euw2mm,nom,344,2afc,1069,329705,pair,1,False,vucu,buxo,10 11,vucu,6 2
x5no39v59euw2mm,nom,347,2afc,1729,333274,pair,0,False,buqe,culu,2 3,buqe,10 9
x5no39v59euw2mm,nom,350,2afc,1799,336924,pair,1,True,koda,koda,7 8,luxo,3 11
x5no39v59euw2mm,nom,353,2afc,1389,340855,triplet,0,True,qimuvu,qimuvu,4 5 6,daqilu,8 4 3
x5no39v59euw2mm,nom,356,2afc,2119,344875,pair,0,True,muvu,muvu,5 6,luxo,3 11
x5no39v59euw2mm,nom,359,2afc,1342,348809,triplet,0,True,ruculu,ruculu,1 2 3,kojemu,7 12 5
x5no39v59euw2mm,nom,362,2afc,2369,353795,triplet,1,False,vucuqe,kodaqe,7 8 9,vucuqe,6 2 9
x5no39v59euw2mm,nom,365,2afc,1592,357999,triplet,0,True,kodaqe,kodaqe,7 8 9,kojemu,7 12 5
x5no39v59euw2mm,nom,368,2afc,1753,362409,triplet,1,True,qimuvu,qimuvu,4 5 6,vucuqe,6 2 9
x5no39v59euw2mm,nom,371,2afc,1048,366044,triplet,0,True,buxoje,buxoje,10 11 12,xoburu,11 10 1
x5no39v59euw2mm,nom,374,2afc,1563,369499,pair,0,True,culu,culu,2 3,koje,7 12
d0okld4mx0cqnhs,nom,305,2afc,3073,193214,pair,0,False,ruvu,rucu,1 2,ruvu,1 6
d0okld4mx0cqnhs,nom,308,2afc,1062,196134,pair,1,True,koda,koda,7 8,luxo,3 11
d0okld4mx0cqnhs,nom,311,2afc,926,198967,pair,1,False,luxo,muvu,5 6,luxo,3 11
d0okld4mx0cqnhs,nom,314,2afc,1463,202984,triplet,0,True,qimuvu,qimuvu,4 5 6,daqilu,8 4 3
d0okld4mx0cqnhs,nom,317,2afc,3020,208602,triplet,1,True,buxoje,buxoje,10 11 12,xoburu,11 10 1
d0okld4mx0cqnhs,nom,320,2afc,1049,211540,pair,1,False,vucu,buxo,10 11,vucu,6 2
d0okld4mx0cqnhs,nom,323,2afc,1386,215547,triplet,0,True,kodaqe,kodaqe,7 8 9,kojemu,7 12 5
d0okld4mx0cqnhs,nom,326,2afc,2162,220242,triplet,1,False,xoburu,ruculu,1 2 3,xoburu,11 10 1
d0okld4mx0cqnhs,nom,329,2afc,870,223710,triplet,1,False,kojemu,ruculu,1 2 3,kojemu,7 12 5
d0okld4mx0cqnhs,nom,332,2afc,1383,227762,triplet,0,False,vucuqe,qimuvu,4 5 6,vucuqe,6 2 9
d0okld4mx0cqnhs,nom,335,2afc,1156,230828,pair,1,True,xoje,xoje,11 12,buqe,10 9
d0okld4mx0cqnhs,nom,338,2afc,2438,235088,pair,1,True,qimu,qimu,4 5,mubu,5 10
d0okld4mx0cqnhs,nom,341,2afc,844,238555,triplet,0,False,vucuqe,kodaqe,7 8 9,vucuqe,6 2 9
d0okld4mx0cqnhs,nom,344,2afc,1252,241632,pair,0,True,buxo,buxo,10 11,mubu,5 10
d0okld4mx0cqnhs,nom,347,2afc,1183,244773,pair,0,True,xoje,xoje,11 12,xoqi,11 4
d0okld4mx0cqnhs,nom,350,2afc,931,247541,pair,1,True,qimu,qimu,4 5,jeda,12 8
d0okld4mx0cqnhs,nom,353,2afc,948,250328,pair,1,True,daqe,daqe,8 9,ruvu,1 6
d0okld4mx0cqnhs,nom,356,2afc,1521,254401,triplet,1,False,daqilu,buxoje,10 11 12,daqilu,8 4 3
d0okld4mx0cqnhs,nom,359,2afc,1737,258018,pair,0,False,xoqi,rucu,1 2,xoqi,11 4
d0okld4mx0cqnhs,nom,362,2afc,842,260752,pair,1,False,koje,culu,2 3,koje,7 12
d0okld4mx0cqnhs,nom,365,2afc,800,263390,pair,1,False,buqe,culu,2 3,buqe,10 9
d0okld4mx0cqnhs,nom,368,2afc,713,265974,pair,1,False,koje,daqe,8 9,koje,7 12
d0okld4mx0cqnhs,nom,371,2afc,3057,270887,pair,1,False,jeda,muvu,5 6,jeda,12 8
d0okld4mx0cqnhs,nom,374,2afc,1607,274356,pair,0,True,koda,koda,7 8,vucu,6 2
fxamgpt7p2bhyc3,nom,305,2afc,2051,154850,pair,0,False,xoqi,xoje,11 12,xoqi,11 4
fxamgpt7p2bhyc3,nom,308,2afc,4131,161528,triplet,0,True,buxoje,buxoje,10 11 12,daqilu,8 4 3
fxamgpt7p2bhyc3,nom,311,2afc,833,164198,pair,0,True,culu,culu,2 3,buqe,10 9
fxamgpt7p2bhyc3,nom,314,2afc,670,166736,pair,0,True,daqe,daqe,8 9,koje,7 12
fxamgpt7p2bhyc3,nom,317,2afc,632,169262,pair,1,True,muvu,muvu,5 6,luxo,3 11
fxamgpt7p2bhyc3,nom,320,2afc,1351,172460,pair,0,True,muvu,muvu,5 6,jeda,12 8
fxamgpt7p2bhyc3,nom,323,2afc,693,175046,pair,1,True,buxo,buxo,10 11,vucu,6 2
fxamgpt7p2bhyc3,nom,326,2afc,628,177524,pair,1,True,koda,koda,7 8,vucu,6 2
fxamgpt7p2bhyc3,nom,329,2afc,792,180190,pair,0,False,xoqi,rucu,1 2,xoqi,11 4
fxamgpt7p2bhyc3,nom,332,2afc,1609,184397,triplet,1,True,kodaqe,kodaqe,7 8 9,kojemu,7 12 5
fxamgpt7p2bhyc3,nom,335,2afc,1534,188473,triplet,1,True,qimuvu,qimuvu,4 5 6,daqilu,8 4 3
fxamgpt7p2bhyc3,nom,338,2afc,991,191367,pair,1,False,buqe,xoje,11 12,buqe,10 9
fxamgpt7p2bhyc3,nom,341,2afc,1436,194633,pair,0,False,mubu,buxo,10 11,mubu,5 10
fxamgpt7p2bhyc3,nom,344,2afc,786,198036,triplet,1,True,kodaqe,kodaqe,7 8 9,vucuqe,6 2 9
fxamgpt7p2bhyc3,nom,347,2afc,796,200722,pair,1,False,koje,culu,2 3,koje,7 12
fxamgpt7p2bhyc3,nom,350,2afc,770,204145,triplet,1,False,vucuqe,qimuvu,4 5 6,vucuqe,6 2 9
fxamgpt7p2bhyc3,nom,353,2afc,740,206714,pair,1,True,qimu,qimu,4 5,jeda,12 8
fxamgpt7p2bhyc3,nom,356,2afc,612,209912,triplet,1,True,buxoje,buxoje,10 11 12,xoburu,11 10 1
fxamgpt7p2bhyc3,nom,359,2afc,503,212990,triplet,1,False,kojemu,ruculu,1 2 3,kojemu,7 12 5
fxamgpt7p2bhyc3,nom,362,2afc,603,215436,pair,0,True,koda,koda,7 8,luxo,3 11
fxamgpt7p2bhyc3,nom,365,2afc,4145,222094,triplet,0,False,xoburu,ruculu,1 2 3,xoburu,11 10 1
fxamgpt7p2bhyc3,nom,368,2afc,791,224710,pair,1,False,ruvu,rucu,1 2,ruvu,1 6
fxamgpt7p2bhyc3,nom,371,2afc,745,227276,pair,0,False,mubu,qimu,4 5,mubu,5 10
fxamgpt7p2bhyc3,nom,374,2afc,1671,230758,pair,1,True,daqe,daqe,8 9,ruvu,1 6
m37ld3ujmswhlgh,pfx,305,2afc,4415,1487786,pair,1,False,rulu,buxo,11 7,rulu,6 2
m37ld3ujmswhlgh,pfx,308,2afc,2773,1493164,triplet,0,True,vukolu,vukolu,5 1 2,bumuko,11 10 1
m37ld3ujmswhlgh,pfx,311,2afc,8990,1504010,pair,1,True,qimu,qimu,9 10,muqi,10 9
m37ld3ujmswhlgh,pfx,314,2afc,2134,1508045,pair,1,False,xocu,kolu,1 2,xocu,7 12
m37ld3ujmswhlgh,pfx,317,2afc,1177,1511068,pair,1,True,qimu,qimu,9 10,buqe,11 4
m37ld3ujmswhlgh,pfx,320,2afc,1729,1514660,pair,1,True,daqe,daqe,3 4,cuje,12 8
m37ld3ujmswhlgh,pfx,323,2afc,4194,1521335,triplet,0,False,ruluqi,rudaqe,6 3 4,ruluqi,6 2 9
m37ld3ujmswhlgh,pfx,326,2afc,1113,1524273,pair,0,False,rulu,cuqi,12 9,rulu,6 2
m37ld3ujmswhlgh,pfx,329,2afc,3022,1529082,pair,1,True,buxo,buxo,11 7,dabu,3 11
m37ld3ujmswhlgh,pfx,332,2afc,765,1531655,pair,1,False,cuje,ruda,6 3,cuje,12 8
m37ld3ujmswhlgh,pfx,335,2afc,681,1534240,pair,0,True,xoje,xoje,7 8,koru,1 6
m37ld3ujmswhlgh,pfx,338,2afc,1104,1537924,triplet,0,True,cuqimu,cuqimu,12 9 10,bumuko,11 10 1
m37ld3ujmswhlgh,pfx,341,2afc,1246,1541676,triplet,0,True,rudaqe,rudaqe,6 3 4,jeqeda,8 4 3
m37ld3ujmswhlgh,pfx,344,2afc,891,1544450,pair,0,False,buqe,vuko,5 1,buqe,11 4
m37ld3ujmswhlgh,pfx,347,2afc,1370,1547780,pair,0,True,xoje,xoje,7 8,xocu,7 12
m37ld3ujmswhlgh,pfx,350,2afc,559,1550090,pair,1,True,daqe,daqe,3 4,dabu,3 11
m37ld3ujmswhlgh,pfx,353,2afc,629,1553398,triplet,0,True,buxoje,buxoje,11 7 8,xocuvu,7 12 5
m37ld3ujmswhlgh,pfx,356,2afc,844,1556104,pair,0,False,muqi,kolu,1 2,muqi,10 9
m37ld3ujmswhlgh,pfx,359,2afc,941,1559622,triplet,0,True,cuqimu,cuqimu,12 9 10,jeqeda,8 4 3
m37ld3ujmswhlgh,pfx,362,2afc,1819,1563238,pair,1,False,vumu,ruda,6 3,vumu,5 10
m37ld3ujmswhlgh,pfx,365,2afc,950,1566770,triplet,0,True,buxoje,buxoje,11 7 8,ruluqi,6 2 9
m37ld3ujmswhlgh,pfx,368,2afc,1349,1570010,pair,1,True,vuko,vuko,5 1,koru,1 6
m37ld3ujmswhlgh,pfx,371,2afc,2247,1574936,triplet,0,True,vukolu,vukolu,5 1 2,xocuvu,7 12 5
m37ld3ujmswhlgh,pfx,374,2afc,1355,1578185,pair,0,False,vumu,cuqi,12 9,vumu,5 10
ju2d7sz73lue6ld,sfx,305,2afc,1985,180822,pair,0,False,lucu,koda,7 8,lucu,6 2
ju2d7sz73lue6ld,sfx,308,2afc,683,183370,pair,1,False,buvu,xolu,4 6,buvu,3 11
ju2d7sz73lue6ld,sfx,311,2afc,1069,186286,pair,1,True,xolu,xolu,4 6,qeda,12 8
ju2d7sz73lue6ld,sfx,314,2afc,1810,189978,pair,0,False,jemu,buxo,3 4,jemu,5 10
ju2d7sz73lue6ld,sfx,317,2afc,785,192561,pair,0,True,rucu,rucu,1 2,rulu,1 6
ju2d7sz73lue6ld,sfx,320,2afc,2073,196510,pair,0,False,jemu,qimu,9 10,jemu,5 10
ju2d7sz73lue6ld,sfx,323,2afc,807,199244,pair,0,True,cuje,cuje,2 5,koqe,7 12
ju2d7sz73lue6ld,sfx,326,2afc,876,201984,pair,0,True,muqe,muqe,10 12,muqi,10 9
ju2d7sz73lue6ld,sfx,329,2afc,750,204597,pair,1,True,davu,davu,8 11,koqe,7 12
ju2d7sz73lue6ld,sfx,332,2afc,816,207233,pair,1,False,buvu,koda,7 8,buvu,3 11
ju2d7sz73lue6ld,sfx,335,2afc,1667,211464,triplet,1,True,buxolu,buxolu,3 4 6,lucuqi,6 2 9
ju2d7sz73lue6ld,sfx,338,2afc,973,214260,pair,1,False,qeda,buxo,3 4,qeda,12 8
ju2d7sz73lue6ld,sfx,341,2afc,1240,218018,triplet,0,True,buxolu,buxolu,3 4 6,daxobu,8 4 3
ju2d7sz73lue6ld,sfx,344,2afc,669,221337,triplet,0,False,koqeje,rucuje,1 2 5,koqeje,7 12 5
ju2d7sz73lue6ld,sfx,347,2afc,669,224556,triplet,1,False,daxobu,qimuqe,9 10 12,daxobu,8 4 3
ju2d7sz73lue6ld,sfx,350,2afc,667,227804,triplet,0,False,vumuru,rucuje,1 2 5,vumuru,11 10 1
ju2d7sz73lue6ld,sfx,353,2afc,461,230888,triplet,0,True,kodavu,kodavu,7 8 11,koqeje,7 12 5
ju2d7sz73lue6ld,sfx,356,2afc,499,233277,pair,0,False,muqi,cuje,2 5,muqi,10 9
ju2d7sz73lue6ld,sfx,359,2afc,593,235721,pair,0,False,lucu,qimu,9 10,lucu,6 2
ju2d7sz73lue6ld,sfx,362,2afc,545,238853,triplet,1,False,vumuru,qimuqe,9 10 12,vumuru,11 10 1
ju2d7sz73lue6ld,sfx,365,2afc,1059,242477,triplet,0,True,kodavu,kodavu,7 8 11,lucuqi,6 2 9
ju2d7sz73lue6ld,sfx,368,2afc,747,245015,pair,0,False,rulu,davu,8 11,rulu,1 6
ju2d7sz73lue6ld,sfx,371,2afc,607,247515,pair,0,True,rucu,rucu,1 2,vuxo,11 4
ju2d7sz73lue6ld,sfx,374,2afc,1731,251169,pair,1,False,vuxo,muqe,10 12,vuxo,11 4
teladpy6djq7gt7,sfx,305,2afc,2351,161608,pair,1,True,buxo,buxo,3 4,qeda,12 8
teladpy6djq7gt7,sfx,308,2afc,923,164401,pair,0,False,koqe,davu,8 11,koqe,7 12
teladpy6djq7gt7,sfx,311,2afc,1187,168105,triplet,1,True,buxolu,buxolu,3 4 6,daxobu,8 4 3
teladpy6djq7gt7,sfx,314,2afc,742,170720,pair,1,True,buxo,buxo,3 4,jemu,5 10
teladpy6djq7gt7,sfx,317,2afc,1445,174712,triplet,0,True,qimuqe,qimuqe,9 10 12,daxobu,8 4 3
teladpy6djq7gt7,sfx,320,2afc,1505,178032,pair,1,False,lucu,koda,7 8,lucu,6 2
teladpy6djq7gt7,sfx,323,2afc,577,180504,pair,0,True,rucu,rucu,1 2,vuxo,11 4
teladpy6djq7gt7,sfx,326,2afc,2261,185408,triplet,1,False,koqeje,rucuje,1 2 5,koqeje,7 12 5
teladpy6djq7gt7,sfx,329,2afc,1157,188384,pair,1,False,buvu,koda,7 8,buvu,3 11
teladpy6djq7gt7,sfx,332,2afc,2261,193208,triplet,0,False,lucuqi,kodavu,7 8 11,lucuqi,6 2 9
teladpy6djq7gt7,sfx,335,2afc,1215,196272,pair,1,False,qeda,xolu,4 6,qeda,12 8
teladpy6djq7gt7,sfx,338,2afc,447,199304,triplet,0,True,qimuqe,qimuqe,9 10 12,vumuru,11 10 1
teladpy6djq7gt7,sfx,341,2afc,665,202592,triplet,1,True,kodavu,kodavu,7 8 11,koqeje,7 12 5
teladpy6djq7gt7,sfx,344,2afc,933,205400,pair,1,True,qimu,qimu,9 10,jemu,5 10
teladpy6djq7gt7,sfx,347,2afc,927,208904,triplet,1,True,rucuje,rucuje,1 2 5,vumuru,11 10 1
teladpy6djq7gt7,sfx,350,2afc,1063,211760,pair,1,True,rucu,rucu,1 2,rulu,1 6
teladpy6djq7gt7,sfx,353,2afc,1677,215304,pair,1,False,muqi,muqe,10 12,muqi,10 9
teladpy6djq7gt7,sfx,356,2afc,1545,218713,pair,0,False,buvu,xolu,4 6,buvu,3 11
teladpy6djq7gt7,sfx,359,2afc,747,221344,pair,0,False,muqi,cuje,2 5,muqi,10 9
teladpy6djq7gt7,sfx,362,2afc,1921,225048,pair,1,False,rulu,davu,8 11,rulu,1 6
teladpy6djq7gt7,sfx,365,2afc,887,227864,pair,1,False,koqe,cuje,2 5,koqe,7 12
teladpy6djq7gt7,sfx,368,2afc,877,230664,pair,0,True,muqe,muqe,10 12,vuxo,11 4
teladpy6djq7gt7,sfx,371,2afc,773,234001,triplet,1,False,lucuqi,buxolu,3 4 6,lucuqi,6 2 9
teladpy6djq7gt7,sfx,374,2afc,777,236624,pair,1,True,qimu,qimu,9 10,lucu,6 2
h4aetyyw9d69p01,nom,305,2afc,6918,143260,pair,0,True,buxo,buxo,10 11,mubu,5 10
h4aetyyw9d69p01,nom,308,2afc,883,146736,triplet,0,True,ruculu,ruculu,1 2 3,kojemu,7 12 5
h4aetyyw9d69p01,nom,311,2afc,4106,152708,pair,1,False,koje,daqe,8 9,koje,7 12
h4aetyyw9d69p01,nom,314,2afc,590,155183,pair,0,True,culu,culu,2 3,koje,7 12
h4aetyyw9d69p01,nom,317,2afc,1029,158742,triplet,1,True,ruculu,ruculu,1 2 3,xoburu,11 10 1
h4aetyyw9d69p01,nom,320,2afc,1640,162283,pair,1,False,luxo,muvu,5 6,luxo,3 11
h4aetyyw9d69p01,nom,323,2afc,777,165020,pair,1,False,xoqi,xoje,11 12,xoqi,11 4
h4aetyyw9d69p01,nom,326,2afc,1115,168787,triplet,0,True,qimuvu,qimuvu,4 5 6,vucuqe,6 2 9
h4aetyyw9d69p01,nom,329,2afc,987,171599,pair,0,False,mubu,qimu,4 5,mubu,5 10
h4aetyyw9d69p01,nom,332,2afc,1173,174676,pair,1,True,xoje,xoje,11 12,buqe,10 9
h4aetyyw9d69p01,nom,335,2afc,1229,178492,triplet,1,True,buxoje,buxoje,10 11 12,xoburu,11 10 1
h4aetyyw9d69p01,nom,338,2afc,773,181097,pair,1,False,jeda,qimu,4 5,jeda,12 8
h4aetyyw9d69p01,nom,341,2afc,389,183332,pair,0,False,jeda,muvu,5 6,jeda,12 8
h4aetyyw9d69p01,nom,344,2afc,447,185659,pair,1,True,rucu,rucu,1 2,xoqi,11 4
h4aetyyw9d69p01,nom,347,2afc,968,189180,triplet,1,False,daqilu,qimuvu,4 5 6,daqilu,8 4 3
h4aetyyw9d69p01,nom,350,2afc,481,191503,pair,0,True,rucu,rucu,1 2,ruvu,1 6
h4aetyyw9d69p01,nom,353,2afc,872,194215,pair,0,False,buqe,culu,2 3,buqe,10 9
h4aetyyw9d69p01,nom,356,2afc,675,196748,pair,1,True,koda,koda,7 8,vucu,6 2
h4aetyyw9d69p01,nom,359,2afc,1167,199816,pair,1,True,buxo,buxo,10 11,vucu,6 2
h4aetyyw9d69p01,nom,362,2afc,1538,203208,pair,1,True,koda,koda,7 8,luxo,3 11
h4aetyyw9d69p01,nom,365,2afc,392,205431,pair,0,True,daqe,daqe,8 9,ruvu,1 6
h4aetyyw9d69p01,nom,368,2afc,393,208371,triplet,0,True,buxoje,buxoje,10 11 12,daqilu,8 4 3
h4aetyyw9d69p01,nom,371,2afc,412,211392,triplet,1,True,kodaqe,kodaqe,7 8 9,kojemu,7 12 5
h4aetyyw9d69p01,nom,374,2afc,854,214863,triplet,1,True,kodaqe,kodaqe,7 8 9,vucuqe,6 2 9
9rye361f3q76kr5,sfx,305,2afc,2787,595010,pair,0,False,buvu,xolu,4 6,buvu,3 11
9rye361f3q76kr5,sfx,308,2afc,2255,599098,pair,0,True,buxo,buxo,3 4,qeda,12 8
9rye361f3q76kr5,sfx,311,2afc,648,602371,triplet,1,False,koqeje,kodavu,7 8 11,koqeje,7 12 5
9rye361f3q76kr5,sfx,314,2afc,727,604970,pair,0,True,muqe,muqe,10 12,muqi,10 9
9rye361f3q76kr5,sfx,317,2afc,532,607434,pair,1,True,cuje,cuje,2 5,koqe,7 12
9rye361f3q76kr5,sfx,320,2afc,590,609842,pair,1,False,lucu,koda,7 8,lucu,6 2
9rye361f3q76kr5,sfx,323,2afc,1155,613578,triplet,1,True,rucuje,rucuje,1 2 5,vumuru,11 10 1
9rye361f3q76kr5,sfx,326,2afc,1310,616762,pair,0,True,buxo,buxo,3 4,jemu,5 10
9rye361f3q76kr5,sfx,329,2afc,532,619114,pair,0,False,buvu,koda,7 8,buvu,3 11
9rye361f3q76kr5,sfx,332,2afc,457,621370,pair,1,True,rucu,rucu,1 2,rulu,1 6
9rye361f3q76kr5,sfx,335,2afc,796,624818,triplet,0,False,koqeje,rucuje,1 2 5,koqeje,7 12 5
9rye361f3q76kr5,sfx,338,2afc,531,627234,pair,0,True,cuje,cuje,2 5,muqi,10 9
9rye361f3q76kr5,sfx,341,2afc,566,629698,pair,0,True,rucu,rucu,1 2,vuxo,11 4
9rye361f3q76kr5,sfx,344,2afc,707,632970,triplet,0,True,buxolu,buxolu,3 4 6,lucuqi,6 2 9
9rye361f3q76kr5,sfx,347,2afc,577,635330,pair,1,False,rulu,davu,8 11,rulu,1 6
9rye361f3q76kr5,sfx,350,2afc,665,637858,pair,0,False,koqe,davu,8 11,koqe,7 12
9rye361f3q76kr5,sfx,353,2afc,427,640210,pair,1,True,muqe,muqe,10 12,vuxo,11 4
9rye361f3q76kr5,sfx,356,2afc,590,642642,pair,0,False,qeda,xolu,4 6,qeda,12 8
9rye361f3q76kr5,sfx,359,2afc,385,645578,triplet,0,True,qimuqe,qimuqe,9 10 12,daxobu,8 4 3
9rye361f3q76kr5,sfx,362,2afc,691,648114,pair,0,False,lucu,qimu,9 10,lucu,6 2
9rye361f3q76kr5,sfx,365,2afc,420,651123,triplet,1,True,qimuqe,qimuqe,9 10 12,vumuru,11 10 1
9rye361f3q76kr5,sfx,368,2afc,373,654066,triplet,0,True,kodavu,kodavu,7 8 11,lucuqi,6 2 9
9rye361f3q76kr5,sfx,371,2afc,587,656530,pair,1,False,jemu,qimu,9 10,jemu,5 10
9rye361f3q76kr5,sfx,374,2afc,446,659498,triplet,0,False,daxobu,buxolu,3 4 6,daxobu,8 4 3
2n2fb3j7ek59xu3,pfx,305,2afc,2838,199165,pair,0,True,cuqi,cuqi,12 9,rulu,6 2
2n2fb3j7ek59xu3,pfx,308,2afc,1408,202405,pair,0,False,rulu,buxo,11 7,rulu,6 2
2n2fb3j7ek59xu3,pfx,311,2afc,1764,205961,pair,0,False,dabu,buxo,11 7,dabu,3 11
2n2fb3j7ek59xu3,pfx,314,2afc,1087,208904,pair,1,True,daqe,daqe,3 4,cuje,12 8
2n2fb3j7ek59xu3,pfx,317,2afc,3415,215004,triplet,0,True,vukolu,vukolu,5 1 2,xocuvu,7 12 5
2n2fb3j7ek59xu3,pfx,320,2afc,959,217855,pair,1,True,vuko,vuko,5 1,koru,1 6
2n2fb3j7ek59xu3,pfx,323,2afc,1201,221738,triplet,1,True,buxoje,buxoje,11 7 8,xocuvu,7 12 5
2n2fb3j7ek59xu3,pfx,326,2afc,857,225176,triplet,0,True,cuqimu,cuqimu,12 9 10,jeqeda,8 4 3
2n2fb3j7ek59xu3,pfx,329,2afc,1102,228880,triplet,0,True,vukolu,vukolu,5 1 2,bumuko,11 10 1
2n2fb3j7ek59xu3,pfx,332,2afc,1007,231744,pair,0,False,muqi,kolu,1 2,muqi,10 9
2n2fb3j7ek59xu3,pfx,335,2afc,2109,236368,triplet,1,True,rudaqe,rudaqe,6 3 4,jeqeda,8 4 3
2n2fb3j7ek59xu3,pfx,338,2afc,906,239073,pair,0,True,ruda,ruda,6 3,vumu,5 10
2n2fb3j7ek59xu3,pfx,341,2afc,714,241643,pair,0,False,buqe,qimu,9 10,buqe,11 4
2n2fb3j7ek59xu3,pfx,344,2afc,1080,245208,triplet,0,False,ruluqi,rudaqe,6 3 4,ruluqi,6 2 9
2n2fb3j7ek59xu3,pfx,347,2afc,1556,248664,pair,0,True,kolu,kolu,1 2,xocu,7 12
2n2fb3j7ek59xu3,pfx,350,2afc,965,251382,pair,1,True,daqe,daqe,3 4,dabu,3 11
2n2fb3j7ek59xu3,pfx,353,2afc,1589,254859,pair,0,False,buqe,vuko,5 1,buqe,11 4
2n2fb3j7ek59xu3,pfx,356,2afc,583,257340,pair,0,True,cuqi,cuqi,12 9,vumu,5 10
2n2fb3j7ek59xu3,pfx,359,2afc,738,259987,pair,1,True,xoje,xoje,7 8,koru,1 6
2n2fb3j7ek59xu3,pfx,362,2afc,807,263366,triplet,1,True,buxoje,buxoje,11 7 8,ruluqi,6 2 9
2n2fb3j7ek59xu3,pfx,365,2afc,882,266209,pair,1,True,xoje,xoje,7 8,xocu,7 12
2n2fb3j7ek59xu3,pfx,368,2afc,513,268580,pair,0,False,muqi,qimu,9 10,muqi,10 9
2n2fb3j7ek59xu3,pfx,371,2afc,624,271780,triplet,0,True,cuqimu,cuqimu,12 9 10,bumuko,11 10 1
2n2fb3j7ek59xu3,pfx,374,2afc,2303,275890,pair,1,True,ruda,ruda,6 3,cuje,12 8
sdqdn016s5a3amo,sfx,305,2afc,1310,191091,pair,1,False,muqi,muqe,10 12,muqi,10 9
sdqdn016s5a3amo,sfx,308,2afc,895,193876,pair,1,False,muqi,cuje,2 5,muqi,10 9
sdqdn016s5a3amo,sfx,311,2afc,894,196595,pair,1,True,buxo,buxo,3 4,qeda,12 8
sdqdn016s5a3amo,sfx,314,2afc,1871,201012,triplet,0,True,qimuqe,qimuqe,9 10 12,daxobu,8 4 3
sdqdn016s5a3amo,sfx,317,2afc,825,203716,pair,0,False,jemu,qimu,9 10,jemu,5 10
sdqdn016s5a3amo,sfx,320,2afc,1008,207348,triplet,1,True,kodavu,kodavu,7 8 11,koqeje,7 12 5
sdqdn016s5a3amo,sfx,323,2afc,635,209915,pair,1,True,muqe,muqe,10 12,vuxo,11 4
sdqdn016s5a3amo,sfx,326,2afc,764,212525,pair,1,True,qimu,qimu,9 10,lucu,6 2
sdqdn016s5a3amo,sfx,329,2afc,1366,215755,pair,1,True,xolu,xolu,4 6,buvu,3 11
sdqdn016s5a3amo,sfx,332,2afc,888,218428,pair,1,True,davu,davu,8 11,rulu,1 6
sdqdn016s5a3amo,sfx,335,2afc,772,221051,pair,0,True,xolu,xolu,4 6,qeda,12 8
sdqdn016s5a3amo,sfx,338,2afc,280,223979,triplet,0,False,koqeje,rucuje,1 2 5,koqeje,7 12 5
sdqdn016s5a3amo,sfx,341,2afc,342,226892,triplet,1,True,kodavu,kodavu,7 8 11,lucuqi,6 2 9
sdqdn016s5a3amo,sfx,344,2afc,288,229108,pair,0,False,koqe,cuje,2 5,koqe,7 12
sdqdn016s5a3amo,sfx,347,2afc,570,231579,pair,1,False,vuxo,rucu,1 2,vuxo,11 4
sdqdn016s5a3amo,sfx,350,2afc,634,234803,triplet,0,True,qimuqe,qimuqe,9 10 12,vumuru,11 10 1
sdqdn016s5a3amo,sfx,353,2afc,562,237931,triplet,0,True,buxolu,buxolu,3 4 6,lucuqi,6 2 9
sdqdn016s5a3amo,sfx,356,2afc,797,240547,pair,0,True,koda,koda,7 8,lucu,6 2
sdqdn016s5a3amo,sfx,359,2afc,497,243627,triplet,0,False,vumuru,rucuje,1 2 5,vumuru,11 10 1
sdqdn016s5a3amo,sfx,362,2afc,1230,247384,triplet,1,False,daxobu,buxolu,3 4 6,daxobu,8 4 3
sdqdn016s5a3amo,sfx,365,2afc,687,249872,pair,0,False,rulu,rucu,1 2,rulu,1 6
sdqdn016s5a3amo,sfx,368,2afc,1013,252768,pair,0,True,buxo,buxo,3 4,jemu,5 10
sdqdn016s5a3amo,sfx,371,2afc,543,255128,pair,1,False,buvu,koda,7 8,buvu,3 11
sdqdn016s5a3amo,sfx,374,2afc,350,257344,pair,1,True,davu,davu,8 11,koqe,7 12
pcy0lok6lrxco2x,pfx,305,2afc,2094,183669,pair,1,False,muqi,kolu,1 2,muqi,10 9
pcy0lok6lrxco2x,pfx,308,2afc,2040,187565,pair,1,False,muqi,qimu,9 10,muqi,10 9
pcy0lok6lrxco2x,pfx,311,2afc,1449,190844,pair,1,True,cuqi,cuqi,12 9,rulu,6 2
pcy0lok6lrxco2x,pfx,314,2afc,772,193437,pair,1,False,rulu,buxo,11 7,rulu,6 2
pcy0lok6lrxco2x,pfx,317,2afc,4310,200325,triplet,0,False,bumuko,cuqimu,12 9 10,bumuko,11 10 1
pcy0lok6lrxco2x,pfx,320,2afc,1359,204365,triplet,1,True,buxoje,buxoje,11 7 8,xocuvu,7 12 5
pcy0lok6lrxco2x,pfx,323,2afc,2198,209133,triplet,0,False,ruluqi,buxoje,11 7 8,ruluqi,6 2 9
pcy0lok6lrxco2x,pfx,326,2afc,714,211709,pair,0,True,daqe,daqe,3 4,cuje,12 8
pcy0lok6lrxco2x,pfx,329,2afc,1132,215317,triplet,1,True,rudaqe,rudaqe,6 3 4,ruluqi,6 2 9
pcy0lok6lrxco2x,pfx,332,2afc,833,218109,pair,1,True,xoje,xoje,7 8,xocu,7 12
pcy0lok6lrxco2x,pfx,335,2afc,650,220645,pair,1,False,koru,vuko,5 1,koru,1 6
pcy0lok6lrxco2x,pfx,338,2afc,620,223165,pair,1,True,cuqi,cuqi,12 9,vumu,5 10
pcy0lok6lrxco2x,pfx,341,2afc,1175,227021,triplet,1,False,xocuvu,vukolu,5 1 2,xocuvu,7 12 5
pcy0lok6lrxco2x,pfx,344,2afc,3803,232709,pair,0,False,buqe,vuko,5 1,buqe,11 4
pcy0lok6lrxco2x,pfx,347,2afc,1190,235677,pair,1,False,dabu,buxo,11 7,dabu,3 11
pcy0lok6lrxco2x,pfx,350,2afc,1695,239221,pair,0,False,buqe,qimu,9 10,buqe,11 4
pcy0lok6lrxco2x,pfx,353,2afc,1042,242157,pair,0,True,kolu,kolu,1 2,xocu,7 12
pcy0lok6lrxco2x,pfx,356,2afc,1864,245829,pair,1,False,cuje,ruda,6 3,cuje,12 8
pcy0lok6lrxco2x,pfx,359,2afc,1563,249189,pair,0,False,vumu,ruda,6 3,vumu,5 10
pcy0lok6lrxco2x,pfx,362,2afc,1407,253173,triplet,0,False,jeqeda,cuqimu,12 9 10,jeqeda,8 4 3
pcy0lok6lrxco2x,pfx,365,2afc,2286,258061,triplet,0,False,bumuko,vukolu,5 1 2,bumuko,11 10 1
pcy0lok6lrxco2x,pfx,368,2afc,1064,261629,triplet,0,False,jeqeda,rudaqe,6 3 4,jeqeda,8 4 3
pcy0lok6lrxco2x,pfx,371,2afc,1310,264845,pair,1,True,xoje,xoje,7 8,koru,1 6
pcy0lok6lrxco2x,pfx,374,2afc,1641,268236,pair,1,False,dabu,daqe,3 4,dabu,3 11
peg8arfbqgyh93e,sfx,305,2afc,12016,199720,pair,0,False,koqe,davu,8 11,koqe,7 12
peg8arfbqgyh93e,sfx,308,2afc,3352,204896,pair,0,True,koda,koda,7 8,lucu,6 2
peg8arfbqgyh93e,sfx,311,2afc,4451,211145,pair,0,False,rulu,rucu,1 2,rulu,1 6
peg8arfbqgyh93e,sfx,314,2afc,4122,217096,pair,0,False,qeda,buxo,3 4,qeda,12 8
peg8arfbqgyh93e,sfx,317,2afc,2744,221728,pair,0,True,cuje,cuje,2 5,muqi,10 9
peg8arfbqgyh93e,sfx,320,2afc,1719,225272,pair,0,True,koda,koda,7 8,buvu,3 11
peg8arfbqgyh93e,sfx,323,2afc,5320,233185,triplet,0,False,vumuru,qimuqe,9 10 12,vumuru,11 10 1
peg8arfbqgyh93e,sfx,326,2afc,4824,239889,pair,1,True,buxo,buxo,3 4,jemu,5 10
peg8arfbqgyh93e,sfx,329,2afc,3040,245585,triplet,0,False,koqeje,rucuje,1 2 5,koqeje,7 12 5
peg8arfbqgyh93e,sfx,332,2afc,3475,251690,triplet,0,True,kodavu,kodavu,7 8 11,koqeje,7 12 5
peg8arfbqgyh93e,sfx,335,2afc,5445,259690,triplet,0,True,qimuqe,qimuqe,9 10 12,daxobu,8 4 3
peg8arfbqgyh93e,sfx,338,2afc,2320,263946,pair,0,True,cuje,cuje,2 5,koqe,7 12
peg8arfbqgyh93e,sfx,341,2afc,4158,269954,pair,1,True,qimu,qimu,9 10,lucu,6 2
peg8arfbqgyh93e,sfx,344,2afc,4140,275966,pair,1,False,muqi,muqe,10 12,muqi,10 9
peg8arfbqgyh93e,sfx,347,2afc,2867,280683,pair,1,True,xolu,xolu,4 6,qeda,12 8
peg8arfbqgyh93e,sfx,350,2afc,842,284107,triplet,0,False,vumuru,rucuje,1 2 5,vumuru,11 10 1
peg8arfbqgyh93e,sfx,353,2afc,1940,287917,pair,0,False,buvu,xolu,4 6,buvu,3 11
peg8arfbqgyh93e,sfx,356,2afc,7858,297675,pair,1,False,vuxo,rucu,1 2,vuxo,11 4
peg8arfbqgyh93e,sfx,359,2afc,3950,303507,pair,1,True,qimu,qimu,9 10,jemu,5 10
peg8arfbqgyh93e,sfx,362,2afc,5391,310828,pair,1,True,muqe,muqe,10 12,vuxo,11 4
peg8arfbqgyh93e,sfx,365,2afc,3899,316515,pair,1,True,davu,davu,8 11,rulu,1 6
peg8arfbqgyh93e,sfx,368,2afc,2252,321340,triplet,1,True,kodavu,kodavu,7 8 11,lucuqi,6 2 9
peg8arfbqgyh93e,sfx,371,2afc,4910,328768,triplet,1,True,buxolu,buxolu,3 4 6,daxobu,8 4 3
peg8arfbqgyh93e,sfx,374,2afc,7971,339356,triplet,1,True,buxolu,buxolu,3 4 6,lucuqi,6 2 9
6ax5r7fdfqjnf8x,sfx,305,2afc,3529,174227,pair,0,True,rucu,rucu,1 2,vuxo,11 4
6ax5r7fdfqjnf8x,sfx,308,2afc,1499,177664,pair,0,False,koqe,cuje,2 5,koqe,7 12
6ax5r7fdfqjnf8x,sfx,311,2afc,2452,181950,pair,0,True,koda,koda,7 8,lucu,6 2
6ax5r7fdfqjnf8x,sfx,314,2afc,5196,189675,triplet,0,True,buxolu,buxolu,3 4 6,daxobu,8 4 3
6ax5r7fdfqjnf8x,sfx,317,2afc,2575,194832,triplet,1,False,lucuqi,buxolu,3 4 6,lucuqi,6 2 9
6ax5r7fdfqjnf8x,sfx,320,2afc,2639,199306,pair,1,True,koda,koda,7 8,buvu,3 11
6ax5r7fdfqjnf8x,sfx,323,2afc,1257,203155,triplet,1,True,rucuje,rucuje,1 2 5,vumuru,11 10 1
6ax5r7fdfqjnf8x,sfx,326,2afc,2541,207555,pair,1,True,xolu,xolu,4 6,qeda,12 8
6ax5r7fdfqjnf8x,sfx,329,2afc,2219,211627,pair,1,True,qimu,qimu,9 10,lucu,6 2
6ax5r7fdfqjnf8x,sfx,332,2afc,3308,217576,triplet,1,True,kodavu,kodavu,7 8 11,koqeje,7 12 5
6ax5r7fdfqjnf8x,sfx,335,2afc,1124,220607,pair,1,True,buxo,buxo,3 4,jemu,5 10
6ax5r7fdfqjnf8x,sfx,338,2afc,2868,226055,triplet,0,False,lucuqi,kodavu,7 8 11,lucuqi,6 2 9
6ax5r7fdfqjnf8x,sfx,341,2afc,13520,241446,pair,0,False,koqe,davu,8 11,koqe,7 12
6ax5r7fdfqjnf8x,sfx,344,2afc,1264,244518,pair,0,True,rucu,rucu,1 2,rulu,1 6
6ax5r7fdfqjnf8x,sfx,347,2afc,2932,250009,triplet,0,False,daxobu,qimuqe,9 10 12,daxobu,8 4 3
6ax5r7fdfqjnf8x,sfx,350,2afc,1070,252957,pair,1,False,buvu,xolu,4 6,buvu,3 11
6ax5r7fdfqjnf8x,sfx,353,2afc,2300,257056,pair,0,False,rulu,davu,8 11,rulu,1 6
6ax5r7fdfqjnf8x,sfx,356,2afc,1079,260025,pair,1,True,qimu,qimu,9 10,jemu,5 10
6ax5r7fdfqjnf8x,sfx,359,2afc,1054,262981,pair,0,True,cuje,cuje,2 5,muqi,10 9
6ax5r7fdfqjnf8x,sfx,362,2afc,18480,284057,triplet,1,False,vumuru,qimuqe,9 10 12,vumuru,11 10 1
6ax5r7fdfqjnf8x,sfx,365,2afc,1165,287163,pair,1,False,vuxo,muqe,10 12,vuxo,11 4
6ax5r7fdfqjnf8x,sfx,368,2afc,826,289832,pair,1,True,buxo,buxo,3 4,qeda,12 8
6ax5r7fdfqjnf8x,sfx,371,2afc,1229,293715,triplet,1,True,rucuje,rucuje,1 2 5,koqeje,7 12 5
6ax5r7fdfqjnf8x,sfx,374,2afc,3728,299325,pair,1,False,muqi,muqe,10 12,muqi,10 9
bf613d200l3lmn0,sfx,305,2afc,7709,172070,triplet,1,False,koqeje,rucuje,1 2 5,koqeje,7 12 5
bf613d200l3lmn0,sfx,308,2afc,7108,181750,triplet,1,True,kodavu,kodavu,7 8 11,lucuqi,6 2 9
bf613d200l3lmn0,sfx,311,2afc,4861,188462,pair,0,False,qeda,xolu,4 6,qeda,12 8
bf613d200l3lmn0,sfx,314,2afc,5011,195342,pair,1,True,xolu,xolu,4 6,buvu,3 11
bf613d200l3lmn0,sfx,317,2afc,5561,202702,pair,0,True,rucu,rucu,1 2,rulu,1 6
bf613d200l3lmn0,sfx,320,2afc,5483,209974,pair,0,True,davu,davu,8 11,rulu,1 6
bf613d200l3lmn0,sfx,323,2afc,1615,213407,pair,0,True,koda,koda,7 8,buvu,3 11
bf613d200l3lmn0,sfx,326,2afc,1497,217479,triplet,1,True,rucuje,rucuje,1 2 5,vumuru,11 10 1
bf613d200l3lmn0,sfx,329,2afc,3847,223198,pair,0,True,muqe,muqe,10 12,muqi,10 9
bf613d200l3lmn0,sfx,332,2afc,6640,232430,triplet,1,False,vumuru,qimuqe,9 10 12,vumuru,11 10 1
bf613d200l3lmn0,sfx,335,2afc,4813,239134,pair,0,False,muqi,cuje,2 5,muqi,10 9
bf613d200l3lmn0,sfx,338,2afc,6791,247742,pair,1,False,lucu,koda,7 8,lucu,6 2
bf613d200l3lmn0,sfx,341,2afc,5343,255015,pair,0,True,muqe,muqe,10 12,vuxo,11 4
bf613d200l3lmn0,sfx,344,2afc,1891,258782,pair,1,False,jemu,qimu,9 10,jemu,5 10
bf613d200l3lmn0,sfx,347,2afc,2427,263838,triplet,1,True,kodavu,kodavu,7 8 11,koqeje,7 12 5
bf613d200l3lmn0,sfx,350,2afc,601,266982,triplet,0,True,qimuqe,qimuqe,9 10 12,daxobu,8 4 3
bf613d200l3lmn0,sfx,353,2afc,2855,272406,triplet,0,True,buxolu,buxolu,3 4 6,lucuqi,6 2 9
bf613d200l3lmn0,sfx,356,2afc,1309,275590,pair,1,False,jemu,buxo,3 4,jemu,5 10
bf613d200l3lmn0,sfx,359,2afc,9100,286591,pair,0,True,rucu,rucu,1 2,vuxo,11 4
bf613d200l3lmn0,sfx,362,2afc,1231,289662,pair,1,False,qeda,buxo,3 4,qeda,12 8
bf613d200l3lmn0,sfx,365,2afc,4336,295847,pair,1,False,lucu,qimu,9 10,lucu,6 2
bf613d200l3lmn0,sfx,368,2afc,733,298454,pair,1,False,koqe,davu,8 11,koqe,7 12
bf613d200l3lmn0,sfx,371,2afc,5963,306934,triplet,0,True,buxolu,buxolu,3 4 6,daxobu,8 4 3
bf613d200l3lmn0,sfx,374,2afc,985,309846,pair,1,True,cuje,cuje,2 5,koqe,7 12
egkqbjnpd2yzxmg,nom,305,2afc,3058,306629,pair,1,False,ruvu,daqe,8 9,ruvu,1 6
egkqbjnpd2yzxmg,nom,308,2afc,2665,311124,pair,1,True,qimu,qimu,4 5,jeda,12 8
egkqbjnpd2yzxmg,nom,311,2afc,1252,314262,pair,1,False,koje,culu,2 3,koje,7 12
egkqbjnpd2yzxmg,nom,314,2afc,1836,318677,triplet,0,True,ruculu,ruculu,1 2 3,kojemu,7 12 5
egkqbjnpd2yzxmg,nom,317,2afc,673,321241,pair,1,False,vucu,buxo,10 11,vucu,6 2
egkqbjnpd2yzxmg,nom,320,2afc,1081,324923,triplet,0,True,kodaqe,kodaqe,7 8 9,kojemu,7 12 5
egkqbjnpd2yzxmg,nom,323,2afc,460,327204,pair,1,False,mubu,qimu,4 5,mubu,5 10
egkqbjnpd2yzxmg,nom,326,2afc,473,330328,triplet,1,False,vucuqe,qimuvu,4 5 6,vucuqe,6 2 9
egkqbjnpd2yzxmg,nom,329,2afc,633,332834,pair,0,False,xoqi,rucu,1 2,xoqi,11 4
egkqbjnpd2yzxmg,nom,332,2afc,2675,337412,pair,1,True,xoje,xoje,11 12,buqe,10 9
egkqbjnpd2yzxmg,nom,335,2afc,658,340654,triplet,0,True,buxoje,buxoje,10 11 12,xoburu,11 10 1
egkqbjnpd2yzxmg,nom,338,2afc,524,343695,triplet,1,True,ruculu,ruculu,1 2 3,xoburu,11 10 1
egkqbjnpd2yzxmg,nom,341,2afc,963,346520,pair,0,False,koje,daqe,8 9,koje,7 12
egkqbjnpd2yzxmg,nom,344,2afc,734,349798,triplet,0,True,qimuvu,qimuvu,4 5 6,daqilu,8 4 3
egkqbjnpd2yzxmg,nom,347,2afc,534,352175,pair,1,True,muvu,muvu,5 6,jeda,12 8
egkqbjnpd2yzxmg,nom,350,2afc,409,354436,pair,1,False,vucu,koda,7 8,vucu,6 2
egkqbjnpd2yzxmg,nom,353,2afc,547,356936,pair,0,False,xoqi,xoje,11 12,xoqi,11 4
egkqbjnpd2yzxmg,nom,356,2afc,437,359920,triplet,1,True,buxoje,buxoje,10 11 12,daqilu,8 4 3
egkqbjnpd2yzxmg,nom,359,2afc,470,362281,pair,0,True,muvu,muvu,5 6,luxo,3 11
egkqbjnpd2yzxmg,nom,362,2afc,556,364665,pair,0,False,ruvu,rucu,1 2,ruvu,1 6
egkqbjnpd2yzxmg,nom,365,2afc,422,366923,pair,0,True,culu,culu,2 3,buqe,10 9
egkqbjnpd2yzxmg,nom,368,2afc,498,369251,pair,0,False,mubu,buxo,10 11,mubu,5 10
egkqbjnpd2yzxmg,nom,371,2afc,423,372293,triplet,1,False,vucuqe,kodaqe,7 8 9,vucuqe,6 2 9
egkqbjnpd2yzxmg,nom,374,2afc,415,374549,pair,1,False,luxo,koda,7 8,luxo,3 11
bm960pvu2juk8eh,pfx,305,2afc,4838,164014,pair,0,False,buqe,qimu,9 10,buqe,11 4
bm960pvu2juk8eh,pfx,308,2afc,6308,172205,pair,1,True,vuko,vuko,5 1,koru,1 6
bm960pvu2juk8eh,pfx,311,2afc,6830,181633,triplet,0,False,bumuko,vukolu,5 1 2,bumuko,11 10 1
bm960pvu2juk8eh,pfx,314,2afc,4138,188445,triplet,1,False,xocuvu,vukolu,5 1 2,xocuvu,7 12 5
bm960pvu2juk8eh,pfx,317,2afc,1751,192693,triplet,0,True,rudaqe,rudaqe,6 3 4,ruluqi,6 2 9
bm960pvu2juk8eh,pfx,320,2afc,4881,199374,pair,1,False,vumu,ruda,6 3,vumu,5 10
bm960pvu2juk8eh,pfx,323,2afc,2749,203930,pair,0,False,cuje,ruda,6 3,cuje,12 8
bm960pvu2juk8eh,pfx,326,2afc,1606,207321,pair,0,False,dabu,buxo,11 7,dabu,3 11
bm960pvu2juk8eh,pfx,329,2afc,4325,213496,pair,1,True,qimu,qimu,9 10,muqi,10 9
bm960pvu2juk8eh,pfx,332,2afc,2891,218345,pair,0,False,xocu,xoje,7 8,xocu,7 12
bm960pvu2juk8eh,pfx,335,2afc,1104,221336,pair,1,False,buqe,vuko,5 1,buqe,11 4
bm960pvu2juk8eh,pfx,338,2afc,6369,230377,triplet,0,False,xocuvu,buxoje,11 7 8,xocuvu,7 12 5
bm960pvu2juk8eh,pfx,341,2afc,2829,235786,triplet,0,False,ruluqi,buxoje,11 7 8,ruluqi,6 2 9
bm960pvu2juk8eh,pfx,344,2afc,837,239203,triplet,1,True,cuqimu,cuqimu,12 9 10,jeqeda,8 4 3
bm960pvu2juk8eh,pfx,347,2afc,962,241995,pair,0,True,cuqi,cuqi,12 9,rulu,6 2
bm960pvu2juk8eh,pfx,350,2afc,667,244409,pair,0,False,dabu,daqe,3 4,dabu,3 11
bm960pvu2juk8eh,pfx,353,2afc,828,247087,pair,1,False,muqi,kolu,1 2,muqi,10 9
bm960pvu2juk8eh,pfx,356,2afc,1760,250697,pair,1,False,cuje,daqe,3 4,cuje,12 8
bm960pvu2juk8eh,pfx,359,2afc,1430,254708,triplet,0,True,cuqimu,cuqimu,12 9 10,bumuko,11 10 1
bm960pvu2juk8eh,pfx,362,2afc,635,257241,pair,0,False,xocu,kolu,1 2,xocu,7 12
bm960pvu2juk8eh,pfx,365,2afc,763,260516,triplet,0,False,jeqeda,rudaqe,6 3 4,jeqeda,8 4 3
bm960pvu2juk8eh,pfx,368,2afc,670,263004,pair,0,False,rulu,buxo,11 7,rulu,6 2
bm960pvu2juk8eh,pfx,371,2afc,935,265839,pair,1,False,vumu,cuqi,12 9,vumu,5 10
bm960pvu2juk8eh,pfx,374,2afc,1882,269624,pair,1,True,xoje,xoje,7 8,koru,1 6
httpl9hexg3fht8,nom,305,2afc,4052,154334,pair,0,False,mubu,qimu,4 5,mubu,5 10
httpl9hexg3fht8,nom,308,2afc,972,157128,pair,0,False,ruvu,daqe,8 9,ruvu,1 6
httpl9hexg3fht8,nom,311,2afc,974,159987,pair,0,True,culu,culu,2 3,koje,7 12
httpl9hexg3fht8,nom,314,2afc,1104,163689,triplet,1,True,kodaqe,kodaqe,7 8 9,kojemu,7 12 5
httpl9hexg3fht8,nom,317,2afc,660,166188,pair,0,False,buqe,culu,2 3,buqe,10 9
httpl9hexg3fht8,nom,320,2afc,1605,169626,pair,1,True,rucu,rucu,1 2,ruvu,1 6
httpl9hexg3fht8,nom,323,2afc,914,173073,triplet,1,False,daqilu,qimuvu,4 5 6,daqilu,8 4 3
httpl9hexg3fht8,nom,326,2afc,561,176163,triplet,0,True,ruculu,ruculu,1 2 3,xoburu,11 10 1
httpl9hexg3fht8,nom,329,2afc,2512,180641,pair,0,False,xoqi,xoje,11 12,xoqi,11 4
httpl9hexg3fht8,nom,332,2afc,597,183139,pair,0,False,vucu,buxo,10 11,vucu,6 2
httpl9hexg3fht8,nom,335,2afc,1149,186186,pair,1,True,muvu,muvu,5 6,luxo,3 11
httpl9hexg3fht8,nom,338,2afc,1059,189796,triplet,0,False,daqilu,buxoje,10 11 12,daqilu,8 4 3
httpl9hexg3fht8,nom,341,2afc,611,192259,pair,0,False,vucu,koda,7 8,vucu,6 2
httpl9hexg3fht8,nom,344,2afc,634,194733,pair,1,True,koda,koda,7 8,luxo,3 11
httpl9hexg3fht8,nom,347,2afc,601,197984,triplet,0,False,vucuqe,qimuvu,4 5 6,vucuqe,6 2 9
httpl9hexg3fht8,nom,350,2afc,636,200483,pair,0,True,daqe,daqe,8 9,koje,7 12
httpl9hexg3fht8,nom,353,2afc,827,203221,pair,1,False,buqe,xoje,11 12,buqe,10 9
httpl9hexg3fht8,nom,356,2afc,792,205840,pair,0,True,qimu,qimu,4 5,jeda,12 8
httpl9hexg3fht8,nom,359,2afc,534,208226,pair,1,True,muvu,muvu,5 6,jeda,12 8
httpl9hexg3fht8,nom,362,2afc,2170,212273,pair,0,True,rucu,rucu,1 2,xoqi,11 4
httpl9hexg3fht8,nom,365,2afc,1014,215872,triplet,0,True,buxoje,buxoje,10 11 12,xoburu,11 10 1
httpl9hexg3fht8,nom,368,2afc,2126,220577,triplet,1,True,ruculu,ruculu,1 2 3,kojemu,7 12 5
httpl9hexg3fht8,nom,371,2afc,1176,224371,triplet,0,False,vucuqe,kodaqe,7 8 9,vucuqe,6 2 9
httpl9hexg3fht8,nom,374,2afc,740,226941,pair,1,False,mubu,buxo,10 11,mubu,5 10
wbup2lkahspxm5x,sfx,305,2afc,3119,228074,pair,1,True,koda,koda,7 8,lucu,6 2
wbup2lkahspxm5x,sfx,308,2afc,1892,231846,pair,0,True,davu,davu,8 11,koqe,7 12
wbup2lkahspxm5x,sfx,311,2afc,729,234483,pair,0,True,rucu,rucu,1 2,vuxo,11 4
wbup2lkahspxm5x,sfx,314,2afc,701,236986,pair,1,True,rucu,rucu,1 2,rulu,1 6
wbup2lkahspxm5x,sfx,317,2afc,4874,243740,pair,0,True,muqe,muqe,10 12,muqi,10 9
wbup2lkahspxm5x,sfx,320,2afc,1406,247032,pair,1,False,jemu,buxo,3 4,jemu,5 10
wbup2lkahspxm5x,sfx,323,2afc,3641,253246,triplet,0,True,kodavu,kodavu,7 8 11,lucuqi,6 2 9
wbup2lkahspxm5x,sfx,326,2afc,7423,263257,triplet,0,True,rucuje,rucuje,1 2 5,vumuru,11 10 1
wbup2lkahspxm5x,sfx,329,2afc,826,266682,triplet,1,True,qimuqe,qimuqe,9 10 12,vumuru,11 10 1
wbup2lkahspxm5x,sfx,332,2afc,2199,271403,triplet,0,False,daxobu,buxolu,3 4 6,daxobu,8 4 3
wbup2lkahspxm5x,sfx,335,2afc,1782,275076,pair,0,True,cuje,cuje,2 5,muqi,10 9
wbup2lkahspxm5x,sfx,338,2afc,750,277684,pair,1,True,xolu,xolu,4 6,qeda,12 8
wbup2lkahspxm5x,sfx,341,2afc,644,280258,pair,1,True,muqe,muqe,10 12,vuxo,11 4
wbup2lkahspxm5x,sfx,344,2afc,578,282715,pair,1,False,buvu,xolu,4 6,buvu,3 11
wbup2lkahspxm5x,sfx,347,2afc,610,285877,triplet,0,True,qimuqe,qimuqe,9 10 12,daxobu,8 4 3
wbup2lkahspxm5x,sfx,350,2afc,2477,290245,pair,0,True,qimu,qimu,9 10,jemu,5 10
wbup2lkahspxm5x,sfx,353,2afc,1183,294079,triplet,0,True,rucuje,rucuje,1 2 5,koqeje,7 12 5
wbup2lkahspxm5x,sfx,356,2afc,6750,302766,pair,1,False,koqe,cuje,2 5,koqe,7 12
wbup2lkahspxm5x,sfx,359,2afc,381,305777,triplet,0,True,kodavu,kodavu,7 8 11,koqeje,7 12 5
wbup2lkahspxm5x,sfx,362,2afc,683,308310,pair,0,False,qeda,buxo,3 4,qeda,12 8
wbup2lkahspxm5x,sfx,365,2afc,580,310747,pair,1,False,lucu,qimu,9 10,lucu,6 2
wbup2lkahspxm5x,sfx,368,2afc,613,313189,pair,1,True,koda,koda,7 8,buvu,3 11
wbup2lkahspxm5x,sfx,371,2afc,630,315616,pair,1,False,rulu,davu,8 11,rulu,1 6
wbup2lkahspxm5x,sfx,374,2afc,3217,321405,triplet,0,True,buxolu,buxolu,3 4 6,lucuqi,6 2 9
sqsv6p0c5fzd175,sfx,305,2afc,4234,168371,pair,0,True,buxo,buxo,3 4,qeda,12 8
sqsv6p0c5fzd175,sfx,308,2afc,3850,174121,pair,1,False,vuxo,rucu,1 2,vuxo,11 4
sqsv6p0c5fzd175,sfx,311,2afc,1404,178160,triplet,0,False,koqeje,kodavu,7 8 11,koqeje,7 12 5
sqsv6p0c5fzd175,sfx,314,2afc,1418,182238,triplet,0,True,rucuje,rucuje,1 2 5,koqeje,7 12 5
sqsv6p0c5fzd175,sfx,317,2afc,1293,185461,pair,1,False,vuxo,muqe,10 12,vuxo,11 4
sqsv6p0c5fzd175,sfx,320,2afc,1173,189224,triplet,0,False,vumuru,qimuqe,9 10 12,vumuru,11 10 1
sqsv6p0c5fzd175,sfx,323,2afc,1111,192181,pair,1,True,xolu,xolu,4 6,qeda,12 8
sqsv6p0c5fzd175,sfx,326,2afc,1199,195225,pair,1,True,qimu,qimu,9 10,lucu,6 2
sqsv6p0c5fzd175,sfx,329,2afc,1072,198095,pair,0,True,davu,davu,8 11,rulu,1 6
sqsv6p0c5fzd175,sfx,332,2afc,2188,202154,pair,1,False,buvu,xolu,4 6,buvu,3 11
sqsv6p0c5fzd175,sfx,335,2afc,1781,205822,pair,1,False,jemu,buxo,3 4,jemu,5 10
sqsv6p0c5fzd175,sfx,338,2afc,1120,208830,pair,1,False,muqi,cuje,2 5,muqi,10 9
sqsv6p0c5fzd175,sfx,341,2afc,1707,212350,pair,0,False,lucu,koda,7 8,lucu,6 2
sqsv6p0c5fzd175,sfx,344,2afc,7871,222046,pair,0,True,koda,koda,7 8,buvu,3 11
sqsv6p0c5fzd175,sfx,347,2afc,1953,226580,triplet,0,True,rucuje,rucuje,1 2 5,vumuru,11 10 1
sqsv6p0c5fzd175,sfx,350,2afc,1546,230697,triplet,1,True,kodavu,kodavu,7 8 11,lucuqi,6 2 9
sqsv6p0c5fzd175,sfx,353,2afc,1215,233789,pair,1,True,davu,davu,8 11,koqe,7 12
sqsv6p0c5fzd175,sfx,356,2afc,1218,237578,triplet,0,True,buxolu,buxolu,3 4 6,lucuqi,6 2 9
sqsv6p0c5fzd175,sfx,359,2afc,1248,240691,pair,0,False,muqi,muqe,10 12,muqi,10 9
sqsv6p0c5fzd175,sfx,362,2afc,1024,243645,pair,1,True,cuje,cuje,2 5,koqe,7 12
sqsv6p0c5fzd175,sfx,365,2afc,1483,246920,pair,1,True,rucu,rucu,1 2,rulu,1 6
sqsv6p0c5fzd175,sfx,368,2afc,1162,250643,triplet,1,True,qimuqe,qimuqe,9 10 12,daxobu,8 4 3
sqsv6p0c5fzd175,sfx,371,2afc,1472,254643,triplet,0,True,buxolu,buxolu,3 4 6,daxobu,8 4 3
sqsv6p0c5fzd175,sfx,374,2afc,1568,258088,pair,1,True,qimu,qimu,9 10,jemu,5 10
u7gt1vt5gco0fr2,pfx,305,2afc,4353,190513,pair,0,False,vumu,cuqi,12 9,vumu,5 10
u7gt1vt5gco0fr2,pfx,308,2afc,1952,195164,triplet,0,False,xocuvu,buxoje,11 7 8,xocuvu,7 12 5
u7gt1vt5gco0fr2,pfx,311,2afc,989,197987,pair,0,False,cuje,ruda,6 3,cuje,12 8
u7gt1vt5gco0fr2,pfx,314,2afc,1790,201709,pair,0,False,koru,xoje,7 8,koru,1 6
u7gt1vt5gco0fr2,pfx,317,2afc,541,204162,pair,0,True,vuko,vuko,5 1,koru,1 6
u7gt1vt5gco0fr2,pfx,320,2afc,3281,209346,pair,1,False,buqe,vuko,5 1,buqe,11 4
u7gt1vt5gco0fr2,pfx,323,2afc,4137,216079,triplet,0,True,buxoje,buxoje,11 7 8,ruluqi,6 2 9
u7gt1vt5gco0fr2,pfx,326,2afc,877,218727,pair,0,True,daqe,daqe,3 4,dabu,3 11
u7gt1vt5gco0fr2,pfx,329,2afc,377,221087,pair,0,True,xoje,xoje,7 8,xocu,7 12
u7gt1vt5gco0fr2,pfx,332,2afc,1142,224103,pair,0,False,muqi,qimu,9 10,muqi,10 9
u7gt1vt5gco0fr2,pfx,335,2afc,390,226347,pair,0,True,cuqi,cuqi,12 9,rulu,6 2
u7gt1vt5gco0fr2,pfx,338,2afc,639,228804,pair,0,False,vumu,ruda,6 3,vumu,5 10
u7gt1vt5gco0fr2,pfx,341,2afc,432,231756,triplet,1,True,rudaqe,rudaqe,6 3 4,ruluqi,6 2 9
u7gt1vt5gco0fr2,pfx,344,2afc,1118,235471,triplet,0,False,jeqeda,cuqimu,12 9 10,jeqeda,8 4 3
u7gt1vt5gco0fr2,pfx,347,2afc,446,238458,triplet,0,False,jeqeda,rudaqe,6 3 4,jeqeda,8 4 3
u7gt1vt5gco0fr2,pfx,350,2afc,871,241196,pair,1,True,qimu,qimu,9 10,buqe,11 4
u7gt1vt5gco0fr2,pfx,353,2afc,504,243571,pair,0,True,kolu,kolu,1 2,muqi,10 9
u7gt1vt5gco0fr2,pfx,356,2afc,1362,246850,pair,1,True,kolu,kolu,1 2,xocu,7 12
u7gt1vt5gco0fr2,pfx,359,2afc,3303,251959,pair,1,True,buxo,buxo,11 7,dabu,3 11
u7gt1vt5gco0fr2,pfx,362,2afc,502,254299,pair,1,True,buxo,buxo,11 7,rulu,6 2
u7gt1vt5gco0fr2,pfx,365,2afc,641,257563,triplet,1,False,bumuko,vukolu,5 1 2,bumuko,11 10 1
u7gt1vt5gco0fr2,pfx,368,2afc,766,261027,triplet,0,True,vukolu,vukolu,5 1 2,xocuvu,7 12 5
u7gt1vt5gco0fr2,pfx,371,2afc,374,263281,pair,0,False,cuje,daqe,3 4,cuje,12 8
u7gt1vt5gco0fr2,pfx,374,2afc,414,266297,triplet,1,True,cuqimu,cuqimu,12 9 10,bumuko,11 10 1
ejeh79yy4smg272,pfx,305,2afc,2039,163933,triplet,0,False,ruluqi,rudaqe,6 3 4,ruluqi,6 2 9
ejeh79yy4smg272,pfx,308,2afc,978,167493,triplet,0,True,cuqimu,cuqimu,12 9 10,jeqeda,8 4 3
ejeh79yy4smg272,pfx,311,2afc,1022,170476,pair,0,False,xocu,xoje,7 8,xocu,7 12
ejeh79yy4smg272,pfx,314,2afc,2772,175168,pair,1,True,xoje,xoje,7 8,koru,1 6
ejeh79yy4smg272,pfx,317,2afc,1398,178383,pair,1,True,ruda,ruda,6 3,cuje,12 8
ejeh79yy4smg272,pfx,320,2afc,1864,182928,triplet,1,False,xocuvu,buxoje,11 7 8,xocuvu,7 12 5
ejeh79yy4smg272,pfx,323,2afc,762,186276,triplet,0,True,cuqimu,cuqimu,12 9 10,bumuko,11 10 1
ejeh79yy4smg272,pfx,326,2afc,952,189116,pair,0,False,buqe,vuko,5 1,buqe,11 4
ejeh79yy4smg272,pfx,329,2afc,758,191773,pair,0,False,xocu,kolu,1 2,xocu,7 12
ejeh79yy4smg272,pfx,332,2afc,784,194449,pair,0,True,cuqi,cuqi,12 9,vumu,5 10
ejeh79yy4smg272,pfx,335,2afc,819,197163,pair,1,False,koru,vuko,5 1,koru,1 6
ejeh79yy4smg272,pfx,338,2afc,724,199638,pair,0,True,daqe,daqe,3 4,dabu,3 11
ejeh79yy4smg272,pfx,341,2afc,810,203024,triplet,1,False,ruluqi,buxoje,11 7 8,ruluqi,6 2 9
ejeh79yy4smg272,pfx,344,2afc,1488,206372,pair,1,True,daqe,daqe,3 4,cuje,12 8
ejeh79yy4smg272,pfx,347,2afc,729,208903,pair,0,False,vumu,ruda,6 3,vumu,5 10
ejeh79yy4smg272,pfx,350,2afc,914,211608,pair,1,True,buxo,buxo,11 7,dabu,3 11
ejeh79yy4smg272,pfx,353,2afc,917,214360,pair,0,True,cuqi,cuqi,12 9,rulu,6 2
ejeh79yy4smg272,pfx,356,2afc,784,217007,pair,1,False,muqi,kolu,1 2,muqi,10 9
ejeh79yy4smg272,pfx,359,2afc,5195,224719,triplet,0,False,jeqeda,rudaqe,6 3 4,jeqeda,8 4 3
ejeh79yy4smg272,pfx,362,2afc,725,227269,pair,1,False,rulu,buxo,11 7,rulu,6 2
ejeh79yy4smg272,pfx,365,2afc,892,230847,triplet,1,False,xocuvu,vukolu,5 1 2,xocuvu,7 12 5
ejeh79yy4smg272,pfx,368,2afc,700,234156,triplet,1,False,bumuko,vukolu,5 1 2,bumuko,11 10 1
ejeh79yy4smg272,pfx,371,2afc,1134,237138,pair,1,False,buqe,qimu,9 10,buqe,11 4
ejeh79yy4smg272,pfx,374,2afc,869,239872,pair,0,False,muqi,qimu,9 10,muqi,10 9
ggygzcrqb1xykdo,sfx,305,2afc,4649,140849,pair,0,True,muqe,muqe,10 12,vuxo,11 4
ggygzcrqb1xykdo,sfx,308,2afc,1005,143725,pair,0,False,koqe,davu,8 11,koqe,7 12
ggygzcrqb1xykdo,sfx,311,2afc,1125,146715,pair,1,True,muqe,muqe,10 12,muqi,10 9
ggygzcrqb1xykdo,sfx,314,2afc,693,149313,pair,1,False,vuxo,rucu,1 2,vuxo,11 4
ggygzcrqb1xykdo,sfx,317,2afc,1007,152887,triplet,0,False,lucuqi,buxolu,3 4 6,lucuqi,6 2 9
ggygzcrqb1xykdo,sfx,320,2afc,1346,156035,pair,1,True,rucu,rucu,1 2,rulu,1 6
ggygzcrqb1xykdo,sfx,323,2afc,2838,160757,pair,0,True,qimu,qimu,9 10,jemu,5 10
ggygzcrqb1xykdo,sfx,326,2afc,596,163177,pair,1,False,buvu,koda,7 8,buvu,3 11
ggygzcrqb1xykdo,sfx,329,2afc,415,165445,pair,0,True,xolu,xolu,4 6,qeda,12 8
ggygzcrqb1xykdo,sfx,332,2afc,572,167953,pair,1,False,koqe,cuje,2 5,koqe,7 12
ggygzcrqb1xykdo,sfx,335,2afc,519,170338,pair,1,True,xolu,xolu,4 6,buvu,3 11
ggygzcrqb1xykdo,sfx,338,2afc,452,172583,pair,1,True,davu,davu,8 11,rulu,1 6
ggygzcrqb1xykdo,sfx,341,2afc,575,175035,pair,1,False,jemu,buxo,3 4,jemu,5 10
ggygzcrqb1xykdo,sfx,344,2afc,508,178119,triplet,0,True,kodavu,kodavu,7 8 11,lucuqi,6 2 9
ggygzcrqb1xykdo,sfx,347,2afc,548,181189,triplet,0,True,buxolu,buxolu,3 4 6,daxobu,8 4 3
ggygzcrqb1xykdo,sfx,350,2afc,656,183697,pair,0,True,qimu,qimu,9 10,lucu,6 2
ggygzcrqb1xykdo,sfx,353,2afc,403,185925,pair,1,True,koda,koda,7 8,lucu,6 2
ggygzcrqb1xykdo,sfx,356,2afc,552,189025,triplet,0,True,qimuqe,qimuqe,9 10 12,daxobu,8 4 3
ggygzcrqb1xykdo,sfx,359,2afc,457,192128,triplet,1,True,rucuje,rucuje,1 2 5,koqeje,7 12 5
ggygzcrqb1xykdo,sfx,362,2afc,403,195164,triplet,0,False,koqeje,kodavu,7 8 11,koqeje,7 12 5
ggygzcrqb1xykdo,sfx,365,2afc,419,197407,pair,1,True,buxo,buxo,3 4,qeda,12 8
ggygzcrqb1xykdo,sfx,368,2afc,498,200499,triplet,1,False,vumuru,qimuqe,9 10 12,vumuru,11 10 1
ggygzcrqb1xykdo,sfx,371,2afc,505,202895,pair,0,True,cuje,cuje,2 5,muqi,10 9
ggygzcrqb1xykdo,sfx,374,2afc,499,205979,triplet,1,False,vumuru,rucuje,1 2 5,vumuru,11 10 1
m2ayv0furajtpv7,pfx,305,2afc,3801,255188,triplet,0,True,buxoje,buxoje,11 7 8,ruluqi,6 2 9
m2ayv0furajtpv7,pfx,308,2afc,6128,263204,pair,1,False,vumu,cuqi,12 9,vumu,5 10
m2ayv0furajtpv7,pfx,311,2afc,4959,269915,pair,0,False,dabu,daqe,3 4,dabu,3 11
m2ayv0furajtpv7,pfx,314,2afc,4275,276012,pair,0,True,buxo,buxo,11 7,rulu,6 2
m2ayv0furajtpv7,pfx,317,2afc,1635,280220,triplet,0,False,bumuko,cuqimu,12 9 10,bumuko,11 10 1
m2ayv0furajtpv7,pfx,320,2afc,611,283308,triplet,0,False,ruluqi,rudaqe,6 3 4,ruluqi,6 2 9
m2ayv0furajtpv7,pfx,323,2afc,4216,289332,pair,1,False,cuje,ruda,6 3,cuje,12 8
m2ayv0furajtpv7,pfx,326,2afc,613,292620,triplet,0,False,xocuvu,vukolu,5 1 2,xocuvu,7 12 5
m2ayv0furajtpv7,pfx,329,2afc,752,295228,pair,0,False,muqi,qimu,9 10,muqi,10 9
m2ayv0furajtpv7,pfx,332,2afc,644,298380,triplet,0,True,rudaqe,rudaqe,6 3 4,jeqeda,8 4 3
m2ayv0furajtpv7,pfx,335,2afc,702,300988,pair,1,False,koru,xoje,7 8,koru,1 6
m2ayv0furajtpv7,pfx,338,2afc,742,303588,pair,0,False,cuje,daqe,3 4,cuje,12 8
m2ayv0furajtpv7,pfx,341,2afc,4610,309996,pair,1,True,ruda,ruda,6 3,vumu,5 10
m2ayv0furajtpv7,pfx,344,2afc,773,312660,pair,1,True,vuko,vuko,5 1,koru,1 6
m2ayv0furajtpv7,pfx,347,2afc,3198,317684,pair,1,True,cuqi,cuqi,12 9,rulu,6 2
m2ayv0furajtpv7,pfx,350,2afc,886,321252,triplet,1,True,buxoje,buxoje,11 7 8,xocuvu,7 12 5
m2ayv0furajtpv7,pfx,353,2afc,594,323700,pair,0,False,muqi,kolu,1 2,muqi,10 9
m2ayv0furajtpv7,pfx,356,2afc,612,326268,pair,1,True,xoje,xoje,7 8,xocu,7 12
m2ayv0furajtpv7,pfx,359,2afc,2207,330364,pair,1,False,buqe,vuko,5 1,buqe,11 4
m2ayv0furajtpv7,pfx,362,2afc,530,333476,triplet,0,True,cuqimu,cuqimu,12 9 10,jeqeda,8 4 3
m2ayv0furajtpv7,pfx,365,2afc,747,336124,pair,0,False,xocu,kolu,1 2,xocu,7 12
m2ayv0furajtpv7,pfx,368,2afc,774,339500,triplet,1,True,vukolu,vukolu,5 1 2,bumuko,11 10 1
m2ayv0furajtpv7,pfx,371,2afc,3635,344980,pair,1,False,buqe,qimu,9 10,buqe,11 4
m2ayv0furajtpv7,pfx,374,2afc,520,347276,pair,0,True,buxo,buxo,11 7,dabu,3 11
3y0kwkl1at3m31w,pfx,305,2afc,3046,184924,pair,1,False,cuje,ruda,6 3,cuje,12 8
3y0kwkl1at3m31w,pfx,308,2afc,682,187509,pair,1,True,xoje,xoje,7 8,koru,1 6
3y0kwkl1at3m31w,pfx,311,2afc,708,190816,triplet,0,True,vukolu,vukolu,5 1 2,bumuko,11 10 1
3y0kwkl1at3m31w,pfx,314,2afc,638,193296,pair,1,False,buqe,qimu,9 10,buqe,11 4
3y0kwkl1at3m31w,pfx,317,2afc,854,196822,triplet,1,False,xocuvu,buxoje,11 7 8,xocuvu,7 12 5
3y0kwkl1at3m31w,pfx,320,2afc,1384,200882,triplet,1,False,xocuvu,vukolu,5 1 2,xocuvu,7 12 5
3y0kwkl1at3m31w,pfx,323,2afc,1296,204064,pair,0,True,cuqi,cuqi,12 9,vumu,5 10
3y0kwkl1at3m31w,pfx,326,2afc,604,206522,pair,1,False,cuje,daqe,3 4,cuje,12 8
3y0kwkl1at3m31w,pfx,329,2afc,520,209517,triplet,0,False,ruluqi,rudaqe,6 3 4,ruluqi,6 2 9
3y0kwkl1at3m31w,pfx,332,2afc,2064,213483,pair,1,True,kolu,kolu,1 2,xocu,7 12
3y0kwkl1at3m31w,pfx,335,2afc,1292,217340,triplet,1,False,ruluqi,buxoje,11 7 8,ruluqi,6 2 9
3y0kwkl1at3m31w,pfx,338,2afc,637,219766,pair,0,False,dabu,buxo,11 7,dabu,3 11
3y0kwkl1at3m31w,pfx,341,2afc,583,222172,pair,1,False,rulu,cuqi,12 9,rulu,6 2
3y0kwkl1at3m31w,pfx,344,2afc,722,225400,triplet,0,False,jeqeda,rudaqe,6 3 4,jeqeda,8 4 3
3y0kwkl1at3m31w,pfx,347,2afc,2212,229361,pair,1,False,dabu,daqe,3 4,dabu,3 11
3y0kwkl1at3m31w,pfx,350,2afc,597,231846,pair,0,False,buqe,vuko,5 1,buqe,11 4
3y0kwkl1at3m31w,pfx,353,2afc,484,234143,pair,0,False,rulu,buxo,11 7,rulu,6 2
3y0kwkl1at3m31w,pfx,356,2afc,426,236365,pair,1,False,vumu,ruda,6 3,vumu,5 10
3y0kwkl1at3m31w,pfx,359,2afc,8538,246787,pair,0,True,vuko,vuko,5 1,koru,1 6
3y0kwkl1at3m31w,pfx,362,2afc,342,248980,pair,0,False,muqi,qimu,9 10,muqi,10 9
3y0kwkl1at3m31w,pfx,365,2afc,896,251835,pair,0,True,xoje,xoje,7 8,xocu,7 12
3y0kwkl1at3m31w,pfx,368,2afc,507,254916,triplet,0,True,cuqimu,cuqimu,12 9 10,bumuko,11 10 1
3y0kwkl1at3m31w,pfx,371,2afc,924,258412,triplet,0,True,cuqimu,cuqimu,12 9 10,jeqeda,8 4 3
3y0kwkl1at3m31w,pfx,374,2afc,538,260806,pair,0,False,muqi,kolu,1 2,muqi,10 9
0frt4bpape7cbre,sfx,305,2afc,5189,345763,pair,0,True,qimu,qimu,9 10,lucu,6 2
0frt4bpape7cbre,sfx,308,2afc,5722,354075,triplet,0,False,lucuqi,kodavu,7 8 11,lucuqi,6 2 9
0frt4bpape7cbre,sfx,311,2afc,6136,362811,triplet,1,False,vumuru,rucuje,1 2 5,vumuru,11 10 1
0frt4bpape7cbre,sfx,314,2afc,2402,367027,pair,0,True,davu,davu,8 11,rulu,1 6
0frt4bpape7cbre,sfx,317,2afc,2277,371971,triplet,1,False,koqeje,rucuje,1 2 5,koqeje,7 12 5
0frt4bpape7cbre,sfx,320,2afc,714,375299,triplet,0,False,vumuru,qimuqe,9 10 12,vumuru,11 10 1
0frt4bpape7cbre,sfx,323,2afc,2411,380354,triplet,0,False,koqeje,kodavu,7 8 11,koqeje,7 12 5
0frt4bpape7cbre,sfx,326,2afc,1266,383571,pair,0,True,cuje,cuje,2 5,koqe,7 12
0frt4bpape7cbre,sfx,329,2afc,1134,386547,pair,0,False,buvu,koda,7 8,buvu,3 11
0frt4bpape7cbre,sfx,332,2afc,788,389203,pair,1,True,xolu,xolu,4 6,qeda,12 8
0frt4bpape7cbre,sfx,335,2afc,714,391819,pair,0,True,qimu,qimu,9 10,jemu,5 10
0frt4bpape7cbre,sfx,338,2afc,1570,395274,pair,0,True,xolu,xolu,4 6,buvu,3 11
0frt4bpape7cbre,sfx,341,2afc,914,398779,triplet,1,True,buxolu,buxolu,3 4 6,lucuqi,6 2 9
0frt4bpape7cbre,sfx,344,2afc,1466,402130,pair,1,False,muqi,muqe,10 12,muqi,10 9
0frt4bpape7cbre,sfx,347,2afc,856,404891,pair,0,False,jemu,buxo,3 4,jemu,5 10
0frt4bpape7cbre,sfx,350,2afc,690,408155,triplet,1,False,daxobu,qimuqe,9 10 12,daxobu,8 4 3
0frt4bpape7cbre,sfx,353,2afc,959,411002,pair,1,True,davu,davu,8 11,koqe,7 12
0frt4bpape7cbre,sfx,356,2afc,858,413723,pair,1,False,qeda,buxo,3 4,qeda,12 8
0frt4bpape7cbre,sfx,359,2afc,2239,417803,pair,0,False,lucu,koda,7 8,lucu,6 2
0frt4bpape7cbre,sfx,362,2afc,5743,425458,pair,1,False,muqi,cuje,2 5,muqi,10 9
0frt4bpape7cbre,sfx,365,2afc,1535,428939,pair,0,True,muqe,muqe,10 12,vuxo,11 4
0frt4bpape7cbre,sfx,368,2afc,1841,432596,pair,0,False,rulu,rucu,1 2,rulu,1 6
0frt4bpape7cbre,sfx,371,2afc,777,435291,pair,0,True,rucu,rucu,1 2,vuxo,11 4
0frt4bpape7cbre,sfx,374,2afc,748,438570,triplet,0,False,daxobu,buxolu,3 4 6,daxobu,8 4 3
ygfftbj1ffnwrqt,nom,305,2afc,5336,311829,pair,0,True,koda,koda,7 8,luxo,3 11
ygfftbj1ffnwrqt,nom,308,2afc,1591,315326,pair,0,True,muvu,muvu,5 6,luxo,3 11
ygfftbj1ffnwrqt,nom,311,2afc,2214,320196,triplet,0,True,qimuvu,qimuvu,4 5 6,vucuqe,6 2 9
ygfftbj1ffnwrqt,nom,314,2afc,2497,324606,pair,0,True,xoje,xoje,11 12,buqe,10 9
ygfftbj1ffnwrqt,nom,317,2afc,2585,329016,pair,1,False,mubu,qimu,4 5,mubu,5 10
ygfftbj1ffnwrqt,nom,320,2afc,2047,333031,pair,0,False,xoqi,xoje,11 12,xoqi,11 4
ygfftbj1ffnwrqt,nom,323,2afc,1190,336099,pair,1,True,rucu,rucu,1 2,xoqi,11 4
ygfftbj1ffnwrqt,nom,326,2afc,971,338930,pair,0,True,muvu,muvu,5 6,jeda,12 8
ygfftbj1ffnwrqt,nom,329,2afc,1625,342394,pair,1,True,culu,culu,2 3,buqe,10 9
ygfftbj1ffnwrqt,nom,332,2afc,1376,345673,pair,0,False,vucu,buxo,10 11,vucu,6 2
ygfftbj1ffnwrqt,nom,335,2afc,2197,349734,pair,1,False,vucu,koda,7 8,vucu,6 2
ygfftbj1ffnwrqt,nom,338,2afc,1883,354211,triplet,0,False,xoburu,buxoje,10 11 12,xoburu,11 10 1
ygfftbj1ffnwrqt,nom,341,2afc,1036,357077,pair,1,False,ruvu,daqe,8 9,ruvu,1 6
ygfftbj1ffnwrqt,nom,344,2afc,1355,360265,pair,0,False,mubu,buxo,10 11,mubu,5 10
ygfftbj1ffnwrqt,nom,347,2afc,1266,363418,pair,1,True,culu,culu,2 3,koje,7 12
ygfftbj1ffnwrqt,nom,350,2afc,1251,366539,pair,0,False,koje,daqe,8 9,koje,7 12
ygfftbj1ffnwrqt,nom,353,2afc,1322,370399,triplet,0,False,xoburu,ruculu,1 2 3,xoburu,11 10 1
ygfftbj1ffnwrqt,nom,356,2afc,1404,374437,triplet,1,True,kodaqe,kodaqe,7 8 9,vucuqe,6 2 9
ygfftbj1ffnwrqt,nom,359,2afc,1383,377659,pair,1,False,ruvu,rucu,1 2,ruvu,1 6
ygfftbj1ffnwrqt,nom,362,2afc,1732,381230,pair,1,True,qimu,qimu,4 5,jeda,12 8
ygfftbj1ffnwrqt,nom,365,2afc,1114,384931,triplet,0,True,ruculu,ruculu,1 2 3,kojemu,7 12 5
ygfftbj1ffnwrqt,nom,368,2afc,1230,388716,triplet,1,False,daqilu,buxoje,10 11 12,daqilu,8 4 3
ygfftbj1ffnwrqt,nom,371,2afc,2038,393363,triplet,1,True,kodaqe,kodaqe,7 8 9,kojemu,7 12 5
ygfftbj1ffnwrqt,nom,374,2afc,2870,398770,triplet,0,False,daqilu,qimuvu,4 5 6,daqilu,8 4 3
atmpkb2dgveuebc,nom,305,2afc,7970,499871,triplet,0,True,qimuvu,qimuvu,4 5 6,vucuqe,6 2 9
atmpkb2dgveuebc,nom,308,2afc,2537,504247,pair,1,True,culu,culu,2 3,buqe,10 9
atmpkb2dgveuebc,nom,311,2afc,3283,509423,pair,0,True,culu,culu,2 3,koje,7 12
atmpkb2dgveuebc,nom,314,2afc,1245,512535,pair,0,True,daqe,daqe,8 9,koje,7 12
atmpkb2dgveuebc,nom,317,2afc,6431,521551,triplet,1,False,xoburu,buxoje,10 11 12,xoburu,11 10 1
atmpkb2dgveuebc,nom,320,2afc,1709,525879,triplet,0,False,vucuqe,kodaqe,7 8 9,vucuqe,6 2 9
atmpkb2dgveuebc,nom,323,2afc,3985,532415,triplet,0,True,qimuvu,qimuvu,4 5 6,daqilu,8 4 3
atmpkb2dgveuebc,nom,326,2afc,4209,538478,pair,1,False,vucu,koda,7 8,vucu,6 2
atmpkb2dgveuebc,nom,329,2afc,2397,543406,triplet,1,True,ruculu,ruculu,1 2 3,xoburu,11 10 1
atmpkb2dgveuebc,nom,332,2afc,1041,546270,pair,1,True,qimu,qimu,4 5,mubu,5 10
atmpkb2dgveuebc,nom,335,2afc,2738,550838,pair,0,True,qimu,qimu,4 5,jeda,12 8
atmpkb2dgveuebc,nom,338,2afc,1191,553870,pair,0,False,ruvu,rucu,1 2,ruvu,1 6
atmpkb2dgveuebc,nom,341,2afc,1230,556950,pair,0,False,luxo,koda,7 8,luxo,3 11
atmpkb2dgveuebc,nom,344,2afc,579,559358,pair,0,False,ruvu,daqe,8 9,ruvu,1 6
atmpkb2dgveuebc,nom,347,2afc,1105,563014,triplet,0,False,daqilu,buxoje,10 11 12,daqilu,8 4 3
atmpkb2dgveuebc,nom,350,2afc,1137,566046,pair,1,True,muvu,muvu,5 6,luxo,3 11
atmpkb2dgveuebc,nom,353,2afc,735,568614,pair,1,False,mubu,buxo,10 11,mubu,5 10
atmpkb2dgveuebc,nom,356,2afc,1279,571798,pair,0,False,buqe,xoje,11 12,buqe,10 9
atmpkb2dgveuebc,nom,359,2afc,2319,576078,pair,1,False,xoqi,xoje,11 12,xoqi,11 4
atmpkb2dgveuebc,nom,362,2afc,1033,579702,triplet,1,True,ruculu,ruculu,1 2 3,kojemu,7 12 5
atmpkb2dgveuebc,nom,365,2afc,728,583038,triplet,1,True,kodaqe,kodaqe,7 8 9,kojemu,7 12 5
atmpkb2dgveuebc,nom,368,2afc,701,585630,pair,1,False,vucu,buxo,10 11,vucu,6 2
atmpkb2dgveuebc,nom,371,2afc,2001,589510,pair,1,True,rucu,rucu,1 2,xoqi,11 4
atmpkb2dgveuebc,nom,374,2afc,1287,592646,pair,0,True,muvu,muvu,5 6,jeda,12 8
ry8jbk8ge0jo8bp,sfx,305,2afc,1052,154326,pair,1,True,qimu,qimu,9 10,jemu,5 10
ry8jbk8ge0jo8bp,sfx,308,2afc,1967,158862,triplet,1,False,lucuqi,buxolu,3 4 6,lucuqi,6 2 9
ry8jbk8ge0jo8bp,sfx,311,2afc,815,161469,pair,0,True,davu,davu,8 11,rulu,1 6
ry8jbk8ge0jo8bp,sfx,314,2afc,978,164310,pair,0,True,davu,davu,8 11,koqe,7 12
ry8jbk8ge0jo8bp,sfx,317,2afc,858,167742,triplet,1,True,kodavu,kodavu,7 8 11,lucuqi,6 2 9
ry8jbk8ge0jo8bp,sfx,320,2afc,750,170294,pair,0,True,rucu,rucu,1 2,rulu,1 6
ry8jbk8ge0jo8bp,sfx,323,2afc,2464,174646,pair,1,False,muqi,cuje,2 5,muqi,10 9
ry8jbk8ge0jo8bp,sfx,326,2afc,1080,177574,pair,0,False,qeda,xolu,4 6,qeda,12 8
ry8jbk8ge0jo8bp,sfx,329,2afc,885,180279,pair,0,False,lucu,koda,7 8,lucu,6 2
ry8jbk8ge0jo8bp,sfx,332,2afc,1545,184406,triplet,0,True,qimuqe,qimuqe,9 10 12,vumuru,11 10 1
ry8jbk8ge0jo8bp,sfx,335,2afc,959,187262,pair,0,True,rucu,rucu,1 2,vuxo,11 4
ry8jbk8ge0jo8bp,sfx,338,2afc,1415,191310,triplet,0,True,kodavu,kodavu,7 8 11,koqeje,7 12 5
ry8jbk8ge0jo8bp,sfx,341,2afc,1547,194710,pair,1,False,lucu,qimu,9 10,lucu,6 2
ry8jbk8ge0jo8bp,sfx,344,2afc,2073,198668,pair,0,False,jemu,buxo,3 4,jemu,5 10
ry8jbk8ge0jo8bp,sfx,347,2afc,536,201749,triplet,0,True,qimuqe,qimuqe,9 10 12,daxobu,8 4 3
ry8jbk8ge0jo8bp,sfx,350,2afc,2148,205822,pair,0,False,koqe,cuje,2 5,koqe,7 12
ry8jbk8ge0jo8bp,sfx,353,2afc,1402,209806,triplet,1,False,vumuru,rucuje,1 2 5,vumuru,11 10 1
ry8jbk8ge0jo8bp,sfx,356,2afc,872,213326,triplet,0,False,koqeje,rucuje,1 2 5,koqeje,7 12 5
ry8jbk8ge0jo8bp,sfx,359,2afc,1557,216702,pair,0,False,buvu,koda,7 8,buvu,3 11
ry8jbk8ge0jo8bp,sfx,362,2afc,1158,220382,triplet,1,True,buxolu,buxolu,3 4 6,daxobu,8 4 3
ry8jbk8ge0jo8bp,sfx,365,2afc,2191,224445,pair,0,False,buvu,xolu,4 6,buvu,3 11
ry8jbk8ge0jo8bp,sfx,368,2afc,830,227102,pair,1,False,qeda,buxo,3 4,qeda,12 8
ry8jbk8ge0jo8bp,sfx,371,2afc,598,229629,pair,0,True,muqe,muqe,10 12,vuxo,11 4
ry8jbk8ge0jo8bp,sfx,374,2afc,1931,233422,pair,0,True,muqe,muqe,10 12,muqi,10 9
5e5195cok3xxu10,pfx,305,2afc,3892,193582,pair,1,False,buqe,qimu,9 10,buqe,11 4
5e5195cok3xxu10,pfx,308,2afc,1617,197106,pair,1,False,koru,vuko,5 1,koru,1 6
5e5195cok3xxu10,pfx,311,2afc,3541,203230,triplet,0,False,ruluqi,buxoje,11 7 8,ruluqi,6 2 9
5e5195cok3xxu10,pfx,314,2afc,1669,207597,triplet,1,True,vukolu,vukolu,5 1 2,xocuvu,7 12 5
5e5195cok3xxu10,pfx,317,2afc,1354,210833,pair,1,False,muqi,qimu,9 10,muqi,10 9
5e5195cok3xxu10,pfx,320,2afc,1931,214670,pair,0,True,cuqi,cuqi,12 9,vumu,5 10
5e5195cok3xxu10,pfx,323,2afc,1418,217908,pair,1,True,ruda,ruda,6 3,vumu,5 10
5e5195cok3xxu10,pfx,326,2afc,2141,222670,triplet,1,True,vukolu,vukolu,5 1 2,bumuko,11 10 1
5e5195cok3xxu10,pfx,329,2afc,1377,225847,pair,1,False,dabu,buxo,11 7,dabu,3 11
5e5195cok3xxu10,pfx,332,2afc,1175,228854,pair,0,False,rulu,buxo,11 7,rulu,6 2
5e5195cok3xxu10,pfx,335,2afc,1277,232007,pair,0,False,cuje,daqe,3 4,cuje,12 8
5e5195cok3xxu10,pfx,338,2afc,1151,235760,triplet,0,True,cuqimu,cuqimu,12 9 10,jeqeda,8 4 3
5e5195cok3xxu10,pfx,341,2afc,1276,239634,triplet,1,True,cuqimu,cuqimu,12 9 10,bumuko,11 10 1
5e5195cok3xxu10,pfx,344,2afc,1614,243172,pair,0,False,koru,xoje,7 8,koru,1 6
5e5195cok3xxu10,pfx,347,2afc,1233,246383,pair,1,True,xoje,xoje,7 8,xocu,7 12
5e5195cok3xxu10,pfx,350,2afc,1618,250497,triplet,0,True,rudaqe,rudaqe,6 3 4,ruluqi,6 2 9
5e5195cok3xxu10,pfx,353,2afc,2013,254371,pair,0,False,rulu,cuqi,12 9,rulu,6 2
5e5195cok3xxu10,pfx,356,2afc,1025,257163,pair,0,False,dabu,daqe,3 4,dabu,3 11
5e5195cok3xxu10,pfx,359,2afc,1348,260387,pair,0,False,muqi,kolu,1 2,muqi,10 9
5e5195cok3xxu10,pfx,362,2afc,1209,264128,triplet,1,True,rudaqe,rudaqe,6 3 4,jeqeda,8 4 3
5e5195cok3xxu10,pfx,365,2afc,1219,267268,pair,1,True,kolu,kolu,1 2,xocu,7 12
5e5195cok3xxu10,pfx,368,2afc,1414,271383,triplet,0,True,buxoje,buxoje,11 7 8,xocuvu,7 12 5
5e5195cok3xxu10,pfx,371,2afc,1313,274522,pair,1,False,cuje,ruda,6 3,cuje,12 8
5e5195cok3xxu10,pfx,374,2afc,1160,277590,pair,0,False,buqe,vuko,5 1,buqe,11 4
rzfv48wqpj0b6tu,sfx,305,2afc,3136,170986,triplet,0,False,koqeje,kodavu,7 8 11,koqeje,7 12 5
rzfv48wqpj0b6tu,sfx,308,2afc,743,174284,triplet,0,True,qimuqe,qimuqe,9 10 12,daxobu,8 4 3
rzfv48wqpj0b6tu,sfx,311,2afc,2075,178936,triplet,0,True,rucuje,rucuje,1 2 5,vumuru,11 10 1
rzfv48wqpj0b6tu,sfx,314,2afc,934,181702,pair,0,False,qeda,buxo,3 4,qeda,12 8
rzfv48wqpj0b6tu,sfx,317,2afc,482,184112,pair,0,True,muqe,muqe,10 12,vuxo,11 4
rzfv48wqpj0b6tu,sfx,320,2afc,1131,187060,pair,1,True,koda,koda,7 8,buvu,3 11
rzfv48wqpj0b6tu,sfx,323,2afc,616,189557,pair,0,True,buxo,buxo,3 4,jemu,5 10
rzfv48wqpj0b6tu,sfx,326,2afc,1280,192682,pair,0,False,lucu,qimu,9 10,lucu,6 2
rzfv48wqpj0b6tu,sfx,329,2afc,528,195779,triplet,1,False,lucuqi,buxolu,3 4 6,lucuqi,6 2 9
rzfv48wqpj0b6tu,sfx,332,2afc,1719,200145,triplet,1,True,rucuje,rucuje,1 2 5,koqeje,7 12 5
rzfv48wqpj0b6tu,sfx,335,2afc,652,202665,pair,0,True,muqe,muqe,10 12,muqi,10 9
rzfv48wqpj0b6tu,sfx,338,2afc,551,205109,pair,1,True,rucu,rucu,1 2,vuxo,11 4
rzfv48wqpj0b6tu,sfx,341,2afc,1877,208767,pair,1,True,davu,davu,8 11,rulu,1 6
rzfv48wqpj0b6tu,sfx,344,2afc,585,211921,triplet,0,True,kodavu,kodavu,7 8 11,lucuqi,6 2 9
rzfv48wqpj0b6tu,sfx,347,2afc,503,214213,pair,1,True,rucu,rucu,1 2,rulu,1 6
rzfv48wqpj0b6tu,sfx,350,2afc,443,216533,pair,1,False,jemu,qimu,9 10,jemu,5 10
rzfv48wqpj0b6tu,sfx,353,2afc,1738,220081,pair,0,True,koda,koda,7 8,lucu,6 2
rzfv48wqpj0b6tu,sfx,356,2afc,421,222364,pair,0,False,koqe,davu,8 11,koqe,7 12
rzfv48wqpj0b6tu,sfx,359,2afc,554,225510,triplet,0,True,qimuqe,qimuqe,9 10 12,vumuru,11 10 1
rzfv48wqpj0b6tu,sfx,362,2afc,1495,228872,pair,1,False,buvu,xolu,4 6,buvu,3 11
rzfv48wqpj0b6tu,sfx,365,2afc,3404,234200,pair,1,True,cuje,cuje,2 5,koqe,7 12
rzfv48wqpj0b6tu,sfx,368,2afc,660,236698,pair,0,True,xolu,xolu,4 6,qeda,12 8
rzfv48wqpj0b6tu,sfx,371,2afc,885,240104,triplet,1,False,daxobu,buxolu,3 4 6,daxobu,8 4 3
rzfv48wqpj0b6tu,sfx,374,2afc,684,242672,pair,0,False,muqi,cuje,2 5,muqi,10 9
4g8l7d1smqpwo2h,nom,305,2afc,2183,345236,triplet,0,True,kodaqe,kodaqe,7 8 9,kojemu,7 12 5
4g8l7d1smqpwo2h,nom,308,2afc,992,348160,pair,0,True,muvu,muvu,5 6,luxo,3 11
4g8l7d1smqpwo2h,nom,311,2afc,1472,351618,pair,1,True,xoje,xoje,11 12,xoqi,11 4
4g8l7d1smqpwo2h,nom,314,2afc,1077,355269,triplet,1,True,buxoje,buxoje,10 11 12,daqilu,8 4 3
4g8l7d1smqpwo2h,nom,317,2afc,1016,358143,pair,1,False,mubu,buxo,10 11,mubu,5 10
4g8l7d1smqpwo2h,nom,320,2afc,1387,361385,pair,0,True,qimu,qimu,4 5,jeda,12 8
4g8l7d1smqpwo2h,nom,323,2afc,1005,364935,triplet,1,True,ruculu,ruculu,1 2 3,xoburu,11 10 1
4g8l7d1smqpwo2h,nom,326,2afc,1523,368319,pair,0,False,ruvu,rucu,1 2,ruvu,1 6
4g8l7d1smqpwo2h,nom,329,2afc,790,371013,pair,1,False,koje,culu,2 3,koje,7 12
4g8l7d1smqpwo2h,nom,332,2afc,1299,374206,pair,0,False,koje,daqe,8 9,koje,7 12
4g8l7d1smqpwo2h,nom,335,2afc,1539,378315,triplet,0,False,daqilu,qimuvu,4 5 6,daqilu,8 4 3
4g8l7d1smqpwo2h,nom,338,2afc,990,381241,pair,1,False,vucu,buxo,10 11,vucu,6 2
4g8l7d1smqpwo2h,nom,341,2afc,873,384720,triplet,1,True,buxoje,buxoje,10 11 12,xoburu,11 10 1
4g8l7d1smqpwo2h,nom,344,2afc,1654,388263,pair,1,False,xoqi,rucu,1 2,xoqi,11 4
4g8l7d1smqpwo2h,nom,347,2afc,2016,392964,triplet,1,True,qimuvu,qimuvu,4 5 6,vucuqe,6 2 9
4g8l7d1smqpwo2h,nom,350,2afc,1168,395975,pair,1,False,mubu,qimu,4 5,mubu,5 10
4g8l7d1smqpwo2h,nom,353,2afc,1124,399019,pair,1,True,xoje,xoje,11 12,buqe,10 9
4g8l7d1smqpwo2h,nom,356,2afc,884,401777,pair,1,True,culu,culu,2 3,buqe,10 9
4g8l7d1smqpwo2h,nom,359,2afc,1834,406236,triplet,0,True,ruculu,ruculu,1 2 3,kojemu,7 12 5
4g8l7d1smqpwo2h,nom,362,2afc,722,409622,triplet,1,True,kodaqe,kodaqe,7 8 9,vucuqe,6 2 9
4g8l7d1smqpwo2h,nom,365,2afc,1014,412534,pair,1,True,koda,koda,7 8,vucu,6 2
4g8l7d1smqpwo2h,nom,368,2afc,1013,415410,pair,1,True,muvu,muvu,5 6,jeda,12 8
4g8l7d1smqpwo2h,nom,371,2afc,1029,418301,pair,1,True,daqe,daqe,8 9,ruvu,1 6
4g8l7d1smqpwo2h,nom,374,2afc,940,421106,pair,1,True,koda,koda,7 8,luxo,3 11
s6marm77xpxzvmo,nom,305,2afc,3732,171226,pair,0,True,culu,culu,2 3,koje,7 12
s6marm77xpxzvmo,nom,308,2afc,4962,178026,pair,0,True,culu,culu,2 3,buqe,10 9
s6marm77xpxzvmo,nom,311,2afc,4198,184114,pair,1,False,vucu,buxo,10 11,vucu,6 2
s6marm77xpxzvmo,nom,314,2afc,709,186682,pair,1,False,vucu,koda,7 8,vucu,6 2
s6marm77xpxzvmo,nom,317,2afc,728,189323,pair,1,False,buqe,xoje,11 12,buqe,10 9
s6marm77xpxzvmo,nom,320,2afc,3191,194355,pair,0,True,rucu,rucu,1 2,ruvu,1 6
s6marm77xpxzvmo,nom,323,2afc,4342,200547,pair,0,False,luxo,koda,7 8,luxo,3 11
s6marm77xpxzvmo,nom,326,2afc,3523,205939,pair,1,False,koje,daqe,8 9,koje,7 12
s6marm77xpxzvmo,nom,329,2afc,1953,210507,triplet,1,False,vucuqe,kodaqe,7 8 9,vucuqe,6 2 9
s6marm77xpxzvmo,nom,332,2afc,1959,215075,triplet,0,True,kodaqe,kodaqe,7 8 9,kojemu,7 12 5
s6marm77xpxzvmo,nom,335,2afc,705,217611,pair,1,False,ruvu,daqe,8 9,ruvu,1 6
s6marm77xpxzvmo,nom,338,2afc,2292,222547,triplet,0,True,qimuvu,qimuvu,4 5 6,vucuqe,6 2 9
s6marm77xpxzvmo,nom,341,2afc,1374,225739,pair,0,False,mubu,qimu,4 5,mubu,5 10
s6marm77xpxzvmo,nom,344,2afc,2406,230731,triplet,1,True,buxoje,buxoje,10 11 12,xoburu,11 10 1
s6marm77xpxzvmo,nom,347,2afc,2152,234707,pair,1,False,jeda,qimu,4 5,jeda,12 8
s6marm77xpxzvmo,nom,350,2afc,1320,238555,triplet,1,False,xoburu,ruculu,1 2 3,xoburu,11 10 1
s6marm77xpxzvmo,nom,353,2afc,1307,242451,triplet,1,False,kojemu,ruculu,1 2 3,kojemu,7 12 5
s6marm77xpxzvmo,nom,356,2afc,579,244923,pair,1,True,muvu,muvu,5 6,luxo,3 11
s6marm77xpxzvmo,nom,359,2afc,692,247467,pair,1,True,muvu,muvu,5 6,jeda,12 8
s6marm77xpxzvmo,nom,362,2afc,812,250828,triplet,1,True,buxoje,buxoje,10 11 12,daqilu,8 4 3
s6marm77xpxzvmo,nom,365,2afc,1747,254452,pair,0,True,rucu,rucu,1 2,xoqi,11 4
