ppt_id,listnum,trial_index,task,rt,time_elapsed,distrib,button_clicked,correct_form,chosen_form,incorrect_form,correct_img,foil_img,target_img_position,correct,chose_baseline_sfx
zwkzm0s9ta25cxo,1,8,train,7259,171593,non-baseline,NA,vebmo,NA,NA,imgs/car.png,NA,NA,NA,NA
zwkzm0s9ta25cxo,1,9,attn_pic_selection,2989,174585,non-baseline,1,vebmo,NA,NA,imgs/car.png,imgs/curtain.png,1,TRUE,NA
zwkzm0s9ta25cxo,1,13,train,3705,182303,baseline,NA,puthni,NA,NA,imgs/ball.png,NA,NA,NA,NA
zwkzm0s9ta25cxo,1,14,attn_word_selection,4981,187287,baseline,0,puthni,puthni,puthmo,imgs/ball.png,NA,NA,TRUE,NA
zwkzm0s9ta25cxo,1,18,train,1737,193045,baseline,NA,puthni,NA,NA,imgs/ball.png,NA,NA,NA,NA
zwkzm0s9ta25cxo,1,19,attn_pic_selection,2295,195343,baseline,1,puthni,NA,NA,imgs/ball.png,imgs/scissors.png,1,TRUE,NA
zwkzm0s9ta25cxo,1,23,train,3712,203077,baseline,NA,kuzni,NA,NA,imgs/broom.png,NA,NA,NA,NA
zwkzm0s9ta25cxo,1,24,attn_word_selection,2263,205343,baseline,1,kuzni,kuzni,kuzmo,imgs/broom.png,NA,NA,TRUE,NA
zwkzm0s9ta25cxo,1,28,train,3019,212373,baseline,NA,yethni,NA,NA,imgs/ruler.png,NA,NA,NA,NA
zwkzm0s9ta25cxo,1,29,attn_word_selection,2398,214773,baseline,1,yethni,yethni,yethmo,imgs/ruler.png,NA,NA,TRUE,NA
zwkzm0s9ta25cxo,1,33,train,2108,220913,baseline,NA,zoofni,NA,NA,imgs/scissors.png,NA,NA,NA,NA
zwkzm0s9ta25cxo,1,34,attn_word_selection,2240,223155,baseline,0,zoofni,zoofni,zoofmo,imgs/scissors.png,NA,NA,TRUE,NA
zwkzm0s9ta25cxo,1,38,train,2878,230053,non-baseline,NA,chulmo,NA,NA,imgs/curtain.png,NA,NA,NA,NA
zwkzm0s9ta25cxo,1,39,attn_word_selection,4068,234123,non-baseline,0,chulmo,chulmo,chulni,imgs/curtain.png,NA,NA,TRUE,NA
zwkzm0s9ta25cxo,1,43,train,2026,240179,baseline,NA,puthni,NA,NA,imgs/ball.png,NA,NA,NA,NA
zwkzm0s9ta25cxo,1,44,attn_pic_selection,1482,241663,baseline,0,puthni,NA,NA,imgs/ball.png,imgs/broom.png,0,TRUE,NA
zwkzm0s9ta25cxo,1,48,train,2777,248459,non-baseline,NA,loormo,NA,NA,imgs/toilet.png,NA,NA,NA,NA
zwkzm0s9ta25cxo,1,49,attn_pic_selection,1490,249951,non-baseline,0,loormo,NA,NA,imgs/toilet.png,imgs/car.png,0,TRUE,NA
zwkzm0s9ta25cxo,1,53,train,1173,255139,baseline,NA,zoofni,NA,NA,imgs/scissors.png,NA,NA,NA,NA
zwkzm0s9ta25cxo,1,54,attn_word_selection,3272,258413,baseline,1,zoofni,zoofni,zoofmo,imgs/scissors.png,NA,NA,TRUE,NA
zwkzm0s9ta25cxo,1,58,train,1290,263733,baseline,NA,zoofni,NA,NA,imgs/scissors.png,NA,NA,NA,NA
zwkzm0s9ta25cxo,1,59,attn_word_selection,2350,266085,baseline,1,zoofni,zoofni,zoofmo,imgs/scissors.png,NA,NA,TRUE,NA
zwkzm0s9ta25cxo,1,63,train,1025,271147,non-baseline,NA,loormo,NA,NA,imgs/toilet.png,NA,NA,NA,NA
zwkzm0s9ta25cxo,1,64,attn_word_selection,3716,274865,non-baseline,0,loormo,loormo,loorni,imgs/toilet.png,NA,NA,TRUE,NA
zwkzm0s9ta25cxo,1,68,train,2947,281843,non-baseline,NA,chulmo,NA,NA,imgs/curtain.png,NA,NA,NA,NA
zwkzm0s9ta25cxo,1,69,attn_pic_selection,1584,283429,non-baseline,1,chulmo,NA,NA,imgs/curtain.png,imgs/cellphone.png,1,TRUE,NA
zwkzm0s9ta25cxo,1,73,train,7577,295021,baseline,NA,yethni,NA,NA,imgs/ruler.png,NA,NA,NA,NA
zwkzm0s9ta25cxo,1,74,attn_word_selection,1632,296655,baseline,0,yethni,yethni,yethmo,imgs/ruler.png,NA,NA,TRUE,NA
zwkzm0s9ta25cxo,1,78,train,1977,302663,baseline,NA,yethni,NA,NA,imgs/ruler.png,NA,NA,NA,NA
zwkzm0s9ta25cxo,1,79,attn_word_selection,2646,305311,baseline,0,yethni,yethni,yethmo,imgs/ruler.png,NA,NA,TRUE,NA
zwkzm0s9ta25cxo,1,83,train,1497,310819,non-baseline,NA,loormo,NA,NA,imgs/toilet.png,NA,NA,NA,NA
zwkzm0s9ta25cxo,1,84,attn_pic_selection,2146,312967,non-baseline,1,loormo,NA,NA,imgs/toilet.png,imgs/cellphone.png,1,TRUE,NA
zwkzm0s9ta25cxo,1,88,train,1877,318865,baseline,NA,kuzni,NA,NA,imgs/broom.png,NA,NA,NA,NA
zwkzm0s9ta25cxo,1,89,attn_word_selection,1935,320803,baseline,0,kuzni,kuzni,kuzmo,imgs/broom.png,NA,NA,TRUE,NA
zwkzm0s9ta25cxo,1,93,train,2297,327147,non-baseline,NA,loormo,NA,NA,imgs/toilet.png,NA,NA,NA,NA
zwkzm0s9ta25cxo,1,94,attn_pic_selection,1318,328467,non-baseline,0,loormo,NA,NA,imgs/toilet.png,imgs/curtain.png,0,TRUE,NA
zwkzm0s9ta25cxo,1,98,train,1694,334171,non-baseline,NA,loormo,NA,NA,imgs/toilet.png,NA,NA,NA,NA
zwkzm0s9ta25cxo,1,99,attn_pic_selection,904,335077,non-baseline,1,loormo,NA,NA,imgs/toilet.png,imgs/cellphone.png,1,TRUE,NA
zwkzm0s9ta25cxo,1,103,train,2157,341255,non-baseline,NA,chulmo,NA,NA,imgs/curtain.png,NA,NA,NA,NA
zwkzm0s9ta25cxo,1,104,attn_word_selection,1857,343115,non-baseline,0,chulmo,chulmo,chulni,imgs/curtain.png,NA,NA,TRUE,NA
zwkzm0s9ta25cxo,1,108,train,1387,348521,non-baseline,NA,loormo,NA,NA,imgs/toilet.png,NA,NA,NA,NA
zwkzm0s9ta25cxo,1,109,attn_pic_selection,943,349467,non-baseline,1,loormo,NA,NA,imgs/toilet.png,imgs/cellphone.png,1,TRUE,NA
zwkzm0s9ta25cxo,1,113,train,5078,358569,non-baseline,NA,shoofmo,NA,NA,imgs/cellphone.png,NA,NA,NA,NA
zwkzm0s9ta25cxo,1,114,attn_pic_selection,1044,359615,non-baseline,0,shoofmo,NA,NA,imgs/cellphone.png,imgs/curtain.png,0,TRUE,NA
zwkzm0s9ta25cxo,1,118,train,2546,366185,non-baseline,NA,chulmo,NA,NA,imgs/curtain.png,NA,NA,NA,NA
zwkzm0s9ta25cxo,1,119,attn_word_selection,2038,368225,non-baseline,0,chulmo,chulmo,chulni,imgs/curtain.png,NA,NA,TRUE,NA
zwkzm0s9ta25cxo,1,123,train,1879,374131,non-baseline,NA,chulmo,NA,NA,imgs/curtain.png,NA,NA,NA,NA
zwkzm0s9ta25cxo,1,124,attn_word_selection,2450,376583,non-baseline,1,chulmo,chulmo,chulni,imgs/curtain.png,NA,NA,TRUE,NA
zwkzm0s9ta25cxo,1,128,train,5614,386233,baseline,NA,zoofni,NA,NA,imgs/scissors.png,NA,NA,NA,NA
zwkzm0s9ta25cxo,1,129,attn_pic_selection,1396,387631,baseline,0,zoofni,NA,NA,imgs/scissors.png,imgs/ruler.png,0,TRUE,NA
zwkzm0s9ta25cxo,1,133,train,1675,393325,baseline,NA,yethni,NA,NA,imgs/ruler.png,NA,NA,NA,NA
zwkzm0s9ta25cxo,1,134,attn_pic_selection,1116,394443,baseline,1,yethni,NA,NA,imgs/ruler.png,imgs/scissors.png,1,TRUE,NA
zwkzm0s9ta25cxo,1,138,train,6786,405255,baseline,NA,kuzni,NA,NA,imgs/broom.png,NA,NA,NA,NA
zwkzm0s9ta25cxo,1,139,attn_word_selection,2068,407325,baseline,1,kuzni,kuzni,kuzmo,imgs/broom.png,NA,NA,TRUE,NA
zwkzm0s9ta25cxo,1,143,train,5167,416519,baseline,NA,puthni,NA,NA,imgs/ball.png,NA,NA,NA,NA
zwkzm0s9ta25cxo,1,144,attn_word_selection,2114,418635,baseline,0,puthni,puthni,puthmo,imgs/ball.png,NA,NA,TRUE,NA
zwkzm0s9ta25cxo,1,148,train,803,423447,non-baseline,NA,loormo,NA,NA,imgs/toilet.png,NA,NA,NA,NA
zwkzm0s9ta25cxo,1,149,attn_pic_selection,1226,424675,non-baseline,0,loormo,NA,NA,imgs/toilet.png,imgs/car.png,0,TRUE,NA
zwkzm0s9ta25cxo,1,153,train,5471,434193,baseline,NA,zoofni,NA,NA,imgs/scissors.png,NA,NA,NA,NA
zwkzm0s9ta25cxo,1,154,attn_word_selection,1888,436083,baseline,0,zoofni,zoofni,zoofmo,imgs/scissors.png,NA,NA,TRUE,NA
zwkzm0s9ta25cxo,1,158,train,643,440747,non-baseline,NA,loormo,NA,NA,imgs/toilet.png,NA,NA,NA,NA
zwkzm0s9ta25cxo,1,159,attn_pic_selection,805,441553,non-baseline,0,loormo,NA,NA,imgs/toilet.png,imgs/cellphone.png,0,TRUE,NA
zwkzm0s9ta25cxo,1,163,train,1158,446733,non-baseline,NA,loormo,NA,NA,imgs/toilet.png,NA,NA,NA,NA
zwkzm0s9ta25cxo,1,164,attn_word_selection,1568,448303,non-baseline,0,loormo,loormo,loorni,imgs/toilet.png,NA,NA,TRUE,NA
zwkzm0s9ta25cxo,1,168,train,1912,454239,baseline,NA,puthni,NA,NA,imgs/ball.png,NA,NA,NA,NA
zwkzm0s9ta25cxo,1,169,attn_word_selection,1796,456037,baseline,0,puthni,puthni,puthmo,imgs/ball.png,NA,NA,TRUE,NA
zwkzm0s9ta25cxo,1,173,train,767,460825,non-baseline,NA,loormo,NA,NA,imgs/toilet.png,NA,NA,NA,NA
zwkzm0s9ta25cxo,1,174,attn_pic_selection,850,461677,non-baseline,1,loormo,NA,NA,imgs/toilet.png,imgs/cellphone.png,1,TRUE,NA
zwkzm0s9ta25cxo,1,178,train,4153,469857,non-baseline,NA,vebmo,NA,NA,imgs/car.png,NA,NA,NA,NA
zwkzm0s9ta25cxo,1,179,attn_pic_selection,1817,471676,non-baseline,0,vebmo,NA,NA,imgs/car.png,imgs/toilet.png,0,TRUE,NA
zwkzm0s9ta25cxo,1,183,train,4359,480067,baseline,NA,kuzni,NA,NA,imgs/broom.png,NA,NA,NA,NA
zwkzm0s9ta25cxo,1,184,attn_pic_selection,3046,483115,baseline,1,kuzni,NA,NA,imgs/broom.png,imgs/scissors.png,1,TRUE,NA
zwkzm0s9ta25cxo,1,188,train,1262,488389,baseline,NA,kuzni,NA,NA,imgs/broom.png,NA,NA,NA,NA
zwkzm0s9ta25cxo,1,189,attn_pic_selection,1184,489575,baseline,0,kuzni,NA,NA,imgs/broom.png,imgs/ball.png,0,TRUE,NA
zwkzm0s9ta25cxo,1,193,train,1281,494889,non-baseline,NA,loormo,NA,NA,imgs/toilet.png,NA,NA,NA,NA
zwkzm0s9ta25cxo,1,194,attn_word_selection,1060,495951,non-baseline,0,loormo,loormo,loorni,imgs/toilet.png,NA,NA,TRUE,NA
zwkzm0s9ta25cxo,1,198,train,2232,502217,non-baseline,NA,chulmo,NA,NA,imgs/curtain.png,NA,NA,NA,NA
zwkzm0s9ta25cxo,1,199,attn_pic_selection,974,503193,non-baseline,0,chulmo,NA,NA,imgs/curtain.png,imgs/cellphone.png,0,TRUE,NA
zwkzm0s9ta25cxo,1,203,train,813,508039,baseline,NA,puthni,NA,NA,imgs/ball.png,NA,NA,NA,NA
zwkzm0s9ta25cxo,1,204,attn_word_selection,2386,510427,baseline,1,puthni,puthni,puthmo,imgs/ball.png,NA,NA,TRUE,NA
zwkzm0s9ta25cxo,1,208,train,3746,518201,baseline,NA,yethni,NA,NA,imgs/ruler.png,NA,NA,NA,NA
zwkzm0s9ta25cxo,1,209,attn_pic_selection,1224,519427,baseline,0,yethni,NA,NA,imgs/ruler.png,imgs/broom.png,0,TRUE,NA
zwkzm0s9ta25cxo,1,213,train,2385,525841,baseline,NA,kuzni,NA,NA,imgs/broom.png,NA,NA,NA,NA
zwkzm0s9ta25cxo,1,214,attn_word_selection,1912,527755,baseline,1,kuzni,kuzni,kuzmo,imgs/broom.png,NA,NA,TRUE,NA
zwkzm0s9ta25cxo,1,218,train,839,532607,non-baseline,NA,loormo,NA,NA,imgs/toilet.png,NA,NA,NA,NA
zwkzm0s9ta25cxo,1,219,attn_pic_selection,834,533443,non-baseline,1,loormo,NA,NA,imgs/toilet.png,imgs/curtain.png,1,TRUE,NA
zwkzm0s9ta25cxo,1,223,train,1229,538709,non-baseline,NA,loormo,NA,NA,imgs/toilet.png,NA,NA,NA,NA
zwkzm0s9ta25cxo,1,224,attn_pic_selection,1254,539965,non-baseline,1,loormo,NA,NA,imgs/toilet.png,imgs/curtain.png,1,TRUE,NA
zwkzm0s9ta25cxo,1,228,train,1057,545037,baseline,NA,yethni,NA,NA,imgs/ruler.png,NA,NA,NA,NA
zwkzm0s9ta25cxo,1,229,attn_word_selection,1770,546809,baseline,1,yethni,yethni,yethmo,imgs/ruler.png,NA,NA,TRUE,NA
zwkzm0s9ta25cxo,1,233,train,1303,552123,non-baseline,NA,loormo,NA,NA,imgs/toilet.png,NA,NA,NA,NA
zwkzm0s9ta25cxo,1,234,attn_word_selection,2920,555045,non-baseline,1,loormo,loormo,loorni,imgs/toilet.png,NA,NA,TRUE,NA
zwkzm0s9ta25cxo,1,238,train,5766,564849,non-baseline,NA,vebmo,NA,NA,imgs/car.png,NA,NA,NA,NA
zwkzm0s9ta25cxo,1,239,attn_word_selection,4200,569051,non-baseline,1,vebmo,vebmo,vebni,imgs/car.png,NA,NA,TRUE,NA
zwkzm0s9ta25cxo,1,243,train,2216,575295,baseline,NA,zoofni,NA,NA,imgs/scissors.png,NA,NA,NA,NA
zwkzm0s9ta25cxo,1,244,attn_pic_selection,6904,582201,baseline,0,zoofni,NA,NA,imgs/scissors.png,imgs/ruler.png,0,TRUE,NA
zwkzm0s9ta25cxo,1,246,between_block,27063,611269,NA,NA,NA,NA,NA,NA,NA,NA,NA,NA
zwkzm0s9ta25cxo,1,249,train,1405,614707,baseline,NA,puthni,NA,NA,imgs/ball.png,NA,NA,NA,NA
zwkzm0s9ta25cxo,1,250,attn_pic_selection,904,615614,baseline,0,puthni,NA,NA,imgs/ball.png,imgs/scissors.png,0,TRUE,NA
zwkzm0s9ta25cxo,1,254,train,937,620581,non-baseline,NA,vebmo,NA,NA,imgs/car.png,NA,NA,NA,NA
zwkzm0s9ta25cxo,1,255,attn_word_selection,1796,622379,non-baseline,1,vebmo,vebmo,vebni,imgs/car.png,NA,NA,TRUE,NA
zwkzm0s9ta25cxo,1,259,train,1165,627567,baseline,NA,kuzni,NA,NA,imgs/broom.png,NA,NA,NA,NA
zwkzm0s9ta25cxo,1,260,attn_pic_selection,1708,629278,baseline,0,kuzni,NA,NA,imgs/broom.png,imgs/ball.png,0,TRUE,NA
zwkzm0s9ta25cxo,1,264,train,1395,634699,non-baseline,NA,loormo,NA,NA,imgs/toilet.png,NA,NA,NA,NA
zwkzm0s9ta25cxo,1,265,attn_pic_selection,1044,635745,non-baseline,1,loormo,NA,NA,imgs/toilet.png,imgs/cellphone.png,1,TRUE,NA
zwkzm0s9ta25cxo,1,269,train,694,640449,baseline,NA,puthni,NA,NA,imgs/ball.png,NA,NA,NA,NA
zwkzm0s9ta25cxo,1,270,attn_word_selection,1810,642262,baseline,0,puthni,puthni,puthmo,imgs/ball.png,NA,NA,TRUE,NA
zwkzm0s9ta25cxo,1,274,train,4698,650974,non-baseline,NA,chulmo,NA,NA,imgs/curtain.png,NA,NA,NA,NA
zwkzm0s9ta25cxo,1,275,attn_pic_selection,1442,652418,non-baseline,1,chulmo,NA,NA,imgs/curtain.png,imgs/toilet.png,1,TRUE,NA
zwkzm0s9ta25cxo,1,279,train,1758,658209,baseline,NA,zoofni,NA,NA,imgs/scissors.png,NA,NA,NA,NA
zwkzm0s9ta25cxo,1,280,attn_pic_selection,1200,659412,baseline,1,zoofni,NA,NA,imgs/scissors.png,imgs/ruler.png,1,TRUE,NA
zwkzm0s9ta25cxo,1,284,train,829,664253,non-baseline,NA,loormo,NA,NA,imgs/toilet.png,NA,NA,NA,NA
zwkzm0s9ta25cxo,1,285,attn_pic_selection,2481,666737,non-baseline,0,loormo,NA,NA,imgs/toilet.png,imgs/cellphone.png,0,TRUE,NA
zwkzm0s9ta25cxo,1,289,train,1142,671901,baseline,NA,yethni,NA,NA,imgs/ruler.png,NA,NA,NA,NA
zwkzm0s9ta25cxo,1,290,attn_word_selection,1944,673847,baseline,1,yethni,yethni,yethmo,imgs/ruler.png,NA,NA,TRUE,NA
zwkzm0s9ta25cxo,1,294,train,1549,679417,baseline,NA,yethni,NA,NA,imgs/ruler.png,NA,NA,NA,NA
zwkzm0s9ta25cxo,1,295,attn_pic_selection,2132,681551,baseline,0,yethni,NA,NA,imgs/ruler.png,imgs/broom.png,0,TRUE,NA
zwkzm0s9ta25cxo,1,299,train,2340,687917,non-baseline,NA,loormo,NA,NA,imgs/toilet.png,NA,NA,NA,NA
zwkzm0s9ta25cxo,1,300,attn_pic_selection,960,688879,non-baseline,1,loormo,NA,NA,imgs/toilet.png,imgs/cellphone.png,1,TRUE,NA
zwkzm0s9ta25cxo,1,304,train,1401,694293,non-baseline,NA,vebmo,NA,NA,imgs/car.png,NA,NA,NA,NA
zwkzm0s9ta25cxo,1,305,attn_pic_selection,942,695237,non-baseline,1,vebmo,NA,NA,imgs/car.png,imgs/cellphone.png,1,TRUE,NA
zwkzm0s9ta25cxo,1,309,train,1458,700715,non-baseline,NA,loormo,NA,NA,imgs/toilet.png,NA,NA,NA,NA
zwkzm0s9ta25cxo,1,310,attn_pic_selection,1076,701793,non-baseline,0,loormo,NA,NA,imgs/toilet.png,imgs/curtain.png,0,TRUE,NA
zwkzm0s9ta25cxo,1,314,train,2323,708135,baseline,NA,zoofni,NA,NA,imgs/scissors.png,NA,NA,NA,NA
zwkzm0s9ta25cxo,1,315,attn_word_selection,2859,710997,baseline,1,zoofni,zoofni,zoofmo,imgs/scissors.png,NA,NA,TRUE,NA
zwkzm0s9ta25cxo,1,319,train,1190,716215,baseline,NA,yethni,NA,NA,imgs/ruler.png,NA,NA,NA,NA
zwkzm0s9ta25cxo,1,320,attn_pic_selection,1044,717261,baseline,1,yethni,NA,NA,imgs/ruler.png,imgs/scissors.png,1,TRUE,NA
zwkzm0s9ta25cxo,1,324,train,1591,722871,non-baseline,NA,loormo,NA,NA,imgs/toilet.png,NA,NA,NA,NA
zwkzm0s9ta25cxo,1,325,attn_pic_selection,1060,723933,non-baseline,0,loormo,NA,NA,imgs/toilet.png,imgs/cellphone.png,0,TRUE,NA
zwkzm0s9ta25cxo,1,329,train,1125,729081,baseline,NA,puthni,NA,NA,imgs/ball.png,NA,NA,NA,NA
zwkzm0s9ta25cxo,1,330,attn_word_selection,2132,731215,baseline,1,puthni,puthni,puthmo,imgs/ball.png,NA,NA,TRUE,NA
zwkzm0s9ta25cxo,1,334,train,1046,736299,non-baseline,NA,chulmo,NA,NA,imgs/curtain.png,NA,NA,NA,NA
zwkzm0s9ta25cxo,1,335,attn_pic_selection,772,737073,non-baseline,1,chulmo,NA,NA,imgs/curtain.png,imgs/cellphone.png,1,TRUE,NA
zwkzm0s9ta25cxo,1,339,train,1855,742949,baseline,NA,kuzni,NA,NA,imgs/broom.png,NA,NA,NA,NA
zwkzm0s9ta25cxo,1,340,attn_pic_selection,1536,744487,baseline,0,kuzni,NA,NA,imgs/broom.png,imgs/ruler.png,0,TRUE,NA
zwkzm0s9ta25cxo,1,344,train,1525,750043,baseline,NA,zoofni,NA,NA,imgs/scissors.png,NA,NA,NA,NA
zwkzm0s9ta25cxo,1,345,attn_pic_selection,1060,751105,baseline,1,zoofni,NA,NA,imgs/scissors.png,imgs/ruler.png,1,TRUE,NA
zwkzm0s9ta25cxo,1,349,train,840,755971,non-baseline,NA,loormo,NA,NA,imgs/toilet.png,NA,NA,NA,NA
zwkzm0s9ta25cxo,1,350,attn_word_selection,2678,758651,non-baseline,1,loormo,loormo,loorni,imgs/toilet.png,NA,NA,TRUE,NA
zwkzm0s9ta25cxo,1,354,train,1172,763839,baseline,NA,kuzni,NA,NA,imgs/broom.png,NA,NA,NA,NA
zwkzm0s9ta25cxo,1,355,attn_word_selection,2662,766503,baseline,1,kuzni,kuzni,kuzmo,imgs/broom.png,NA,NA,TRUE,NA
zwkzm0s9ta25cxo,1,359,train,879,771393,non-baseline,NA,loormo,NA,NA,imgs/toilet.png,NA,NA,NA,NA
zwkzm0s9ta25cxo,1,360,attn_word_selection,1756,773151,non-baseline,0,loormo,loormo,loorni,imgs/toilet.png,NA,NA,TRUE,NA
zwkzm0s9ta25cxo,1,364,train,1588,778769,non-baseline,NA,chulmo,NA,NA,imgs/curtain.png,NA,NA,NA,NA
zwkzm0s9ta25cxo,1,365,attn_pic_selection,1318,780089,non-baseline,1,chulmo,NA,NA,imgs/curtain.png,imgs/cellphone.png,1,TRUE,NA
zwkzm0s9ta25cxo,1,369,train,1742,785863,baseline,NA,yethni,NA,NA,imgs/ruler.png,NA,NA,NA,NA
zwkzm0s9ta25cxo,1,370,attn_word_selection,3348,789213,baseline,0,yethni,yethni,yethmo,imgs/ruler.png,NA,NA,TRUE,NA
zwkzm0s9ta25cxo,1,374,train,790,794033,non-baseline,NA,loormo,NA,NA,imgs/toilet.png,NA,NA,NA,NA
zwkzm0s9ta25cxo,1,375,attn_word_selection,1530,795566,non-baseline,0,loormo,loormo,loorni,imgs/toilet.png,NA,NA,TRUE,NA
zwkzm0s9ta25cxo,1,379,train,822,800409,non-baseline,NA,vebmo,NA,NA,imgs/car.png,NA,NA,NA,NA
zwkzm0s9ta25cxo,1,380,attn_word_selection,4912,805323,non-baseline,1,vebmo,vebmo,vebni,imgs/car.png,NA,NA,TRUE,NA
zwkzm0s9ta25cxo,1,384,train,1562,810917,baseline,NA,puthni,NA,NA,imgs/ball.png,NA,NA,NA,NA
zwkzm0s9ta25cxo,1,385,attn_word_selection,2256,813175,baseline,1,puthni,puthni,puthmo,imgs/ball.png,NA,NA,TRUE,NA
zwkzm0s9ta25cxo,1,389,train,2802,820003,non-baseline,NA,chulmo,NA,NA,imgs/curtain.png,NA,NA,NA,NA
zwkzm0s9ta25cxo,1,390,attn_pic_selection,1888,821894,non-baseline,0,chulmo,NA,NA,imgs/curtain.png,imgs/cellphone.png,0,TRUE,NA
zwkzm0s9ta25cxo,1,394,train,1823,827737,non-baseline,NA,loormo,NA,NA,imgs/toilet.png,NA,NA,NA,NA
zwkzm0s9ta25cxo,1,395,attn_pic_selection,1662,829402,non-baseline,1,loormo,NA,NA,imgs/toilet.png,imgs/car.png,1,TRUE,NA
zwkzm0s9ta25cxo,1,399,train,857,834277,baseline,NA,puthni,NA,NA,imgs/ball.png,NA,NA,NA,NA
zwkzm0s9ta25cxo,1,400,attn_word_selection,1888,836167,baseline,0,puthni,puthni,puthmo,imgs/ball.png,NA,NA,TRUE,NA
zwkzm0s9ta25cxo,1,404,train,2115,842307,non-baseline,NA,loormo,NA,NA,imgs/toilet.png,NA,NA,NA,NA
zwkzm0s9ta25cxo,1,405,attn_pic_selection,982,843292,non-baseline,1,loormo,NA,NA,imgs/toilet.png,imgs/car.png,1,TRUE,NA
zwkzm0s9ta25cxo,1,409,train,3810,851136,baseline,NA,zoofni,NA,NA,imgs/scissors.png,NA,NA,NA,NA
zwkzm0s9ta25cxo,1,410,attn_pic_selection,3920,855058,baseline,1,zoofni,NA,NA,imgs/scissors.png,imgs/ruler.png,1,TRUE,NA
zwkzm0s9ta25cxo,1,414,train,1761,860832,baseline,NA,yethni,NA,NA,imgs/ruler.png,NA,NA,NA,NA
zwkzm0s9ta25cxo,1,415,attn_pic_selection,936,861770,baseline,0,yethni,NA,NA,imgs/ruler.png,imgs/broom.png,0,TRUE,NA
zwkzm0s9ta25cxo,1,419,train,1210,867018,non-baseline,NA,chulmo,NA,NA,imgs/curtain.png,NA,NA,NA,NA
zwkzm0s9ta25cxo,1,420,attn_word_selection,3890,870910,non-baseline,0,chulmo,chulmo,chulni,imgs/curtain.png,NA,NA,TRUE,NA
zwkzm0s9ta25cxo,1,424,train,746,875668,non-baseline,NA,loormo,NA,NA,imgs/toilet.png,NA,NA,NA,NA
zwkzm0s9ta25cxo,1,425,attn_pic_selection,817,876488,non-baseline,1,loormo,NA,NA,imgs/toilet.png,imgs/cellphone.png,1,TRUE,NA
zwkzm0s9ta25cxo,1,429,train,2121,882628,baseline,NA,zoofni,NA,NA,imgs/scissors.png,NA,NA,NA,NA
zwkzm0s9ta25cxo,1,430,attn_pic_selection,904,883534,baseline,1,zoofni,NA,NA,imgs/scissors.png,imgs/ruler.png,1,TRUE,NA
zwkzm0s9ta25cxo,1,434,train,959,888518,non-baseline,NA,loormo,NA,NA,imgs/toilet.png,NA,NA,NA,NA
zwkzm0s9ta25cxo,1,435,attn_word_selection,2655,891176,non-baseline,1,loormo,loormo,loorni,imgs/toilet.png,NA,NA,TRUE,NA
zwkzm0s9ta25cxo,1,439,train,867,896066,baseline,NA,puthni,NA,NA,imgs/ball.png,NA,NA,NA,NA
zwkzm0s9ta25cxo,1,440,attn_word_selection,1380,897448,baseline,0,puthni,puthni,puthmo,imgs/ball.png,NA,NA,TRUE,NA
zwkzm0s9ta25cxo,1,444,train,7219,908697,baseline,NA,zoofni,NA,NA,imgs/scissors.png,NA,NA,NA,NA
zwkzm0s9ta25cxo,1,445,attn_word_selection,3522,912221,baseline,0,zoofni,zoofni,zoofmo,imgs/scissors.png,NA,NA,TRUE,NA
zwkzm0s9ta25cxo,1,449,train,967,917221,non-baseline,NA,loormo,NA,NA,imgs/toilet.png,NA,NA,NA,NA
zwkzm0s9ta25cxo,1,450,attn_word_selection,1404,918627,non-baseline,0,loormo,loormo,loorni,imgs/toilet.png,NA,NA,TRUE,NA
zwkzm0s9ta25cxo,1,454,train,3328,925971,non-baseline,NA,shoofmo,NA,NA,imgs/cellphone.png,NA,NA,NA,NA
zwkzm0s9ta25cxo,1,455,attn_pic_selection,1280,927253,non-baseline,1,shoofmo,NA,NA,imgs/cellphone.png,imgs/car.png,1,TRUE,NA
zwkzm0s9ta25cxo,1,459,train,1567,932831,non-baseline,NA,chulmo,NA,NA,imgs/curtain.png,NA,NA,NA,NA
zwkzm0s9ta25cxo,1,460,attn_pic_selection,2576,935409,non-baseline,0,chulmo,NA,NA,imgs/curtain.png,imgs/car.png,0,TRUE,NA
zwkzm0s9ta25cxo,1,464,train,2544,941987,baseline,NA,kuzni,NA,NA,imgs/broom.png,NA,NA,NA,NA
zwkzm0s9ta25cxo,1,465,attn_pic_selection,1146,943135,baseline,1,kuzni,NA,NA,imgs/broom.png,imgs/ball.png,1,TRUE,NA
zwkzm0s9ta25cxo,1,469,train,1623,948775,non-baseline,NA,loormo,NA,NA,imgs/toilet.png,NA,NA,NA,NA
zwkzm0s9ta25cxo,1,470,attn_pic_selection,936,949713,non-baseline,1,loormo,NA,NA,imgs/toilet.png,imgs/car.png,1,TRUE,NA
zwkzm0s9ta25cxo,1,474,train,3906,957643,baseline,NA,kuzni,NA,NA,imgs/broom.png,NA,NA,NA,NA
zwkzm0s9ta25cxo,1,475,attn_word_selection,2514,960159,baseline,1,kuzni,kuzni,kuzmo,imgs/broom.png,NA,NA,TRUE,NA
zwkzm0s9ta25cxo,1,479,train,982,965151,baseline,NA,yethni,NA,NA,imgs/ruler.png,NA,NA,NA,NA
zwkzm0s9ta25cxo,1,480,attn_word_selection,1748,966901,baseline,0,yethni,yethni,yethmo,imgs/ruler.png,NA,NA,TRUE,NA
zwkzm0s9ta25cxo,1,484,train,6836,977762,baseline,NA,kuzni,NA,NA,imgs/broom.png,NA,NA,NA,NA
zwkzm0s9ta25cxo,1,485,attn_pic_selection,896,978660,baseline,1,kuzni,NA,NA,imgs/broom.png,imgs/ruler.png,1,TRUE,NA
zwkzm0s9ta25cxo,1,487,between_block,23773,1004438,NA,NA,NA,NA,NA,NA,NA,NA,NA,NA
zwkzm0s9ta25cxo,1,490,train,2133,1008588,baseline,NA,zoofni,NA,NA,imgs/scissors.png,NA,NA,NA,NA
zwkzm0s9ta25cxo,1,491,attn_pic_selection,1318,1009908,baseline,0,zoofni,NA,NA,imgs/scissors.png,imgs/ruler.png,0,TRUE,NA
zwkzm0s9ta25cxo,1,495,train,1138,1015080,non-baseline,NA,loormo,NA,NA,imgs/toilet.png,NA,NA,NA,NA
zwkzm0s9ta25cxo,1,500,train,1010,1021786,baseline,NA,zoofni,NA,NA,imgs/scissors.png,NA,NA,NA,NA
zwkzm0s9ta25cxo,1,501,attn_pic_selection,1190,1022978,baseline,1,zoofni,NA,NA,imgs/scissors.png,imgs/ball.png,1,TRUE,NA
zwkzm0s9ta25cxo,1,505,train,2090,1029079,baseline,NA,kuzni,NA,NA,imgs/broom.png,NA,NA,NA,NA
zwkzm0s9ta25cxo,1,506,attn_pic_selection,1168,1030250,baseline,0,kuzni,NA,NA,imgs/broom.png,imgs/scissors.png,0,TRUE,NA
zwkzm0s9ta25cxo,1,510,train,2078,1036352,non-baseline,NA,chulmo,NA,NA,imgs/curtain.png,NA,NA,NA,NA
zwkzm0s9ta25cxo,1,515,train,1692,1043634,baseline,NA,zoofni,NA,NA,imgs/scissors.png,NA,NA,NA,NA
zwkzm0s9ta25cxo,1,516,attn_pic_selection,1670,1045306,baseline,0,zoofni,NA,NA,imgs/scissors.png,imgs/ruler.png,0,TRUE,NA
zwkzm0s9ta25cxo,1,520,train,1402,1050720,non-baseline,NA,vebmo,NA,NA,imgs/car.png,NA,NA,NA,NA
zwkzm0s9ta25cxo,1,521,attn_pic_selection,1036,1051758,non-baseline,0,vebmo,NA,NA,imgs/car.png,imgs/curtain.png,0,TRUE,NA
zwkzm0s9ta25cxo,1,525,train,788,1056580,baseline,NA,puthni,NA,NA,imgs/ball.png,NA,NA,NA,NA
zwkzm0s9ta25cxo,1,526,attn_pic_selection,826,1057408,baseline,0,puthni,NA,NA,imgs/ball.png,imgs/scissors.png,0,TRUE,NA
zwkzm0s9ta25cxo,1,530,train,846,1062266,non-baseline,NA,loormo,NA,NA,imgs/toilet.png,NA,NA,NA,NA
zwkzm0s9ta25cxo,1,531,attn_word_selection,1108,1063376,non-baseline,0,loormo,loormo,loorni,imgs/toilet.png,NA,NA,TRUE,NA
zwkzm0s9ta25cxo,1,535,train,1390,1068790,baseline,NA,puthni,NA,NA,imgs/ball.png,NA,NA,NA,NA
zwkzm0s9ta25cxo,1,536,attn_word_selection,2444,1071236,baseline,0,puthni,puthni,puthmo,imgs/ball.png,NA,NA,TRUE,NA
zwkzm0s9ta25cxo,1,540,train,1729,1076992,non-baseline,NA,loormo,NA,NA,imgs/toilet.png,NA,NA,NA,NA
zwkzm0s9ta25cxo,1,541,attn_word_selection,1858,1078852,non-baseline,1,loormo,loormo,loorni,imgs/toilet.png,NA,NA,TRUE,NA
zwkzm0s9ta25cxo,1,545,train,1588,1084454,non-baseline,NA,loormo,NA,NA,imgs/toilet.png,NA,NA,NA,NA
zwkzm0s9ta25cxo,1,546,attn_pic_selection,866,1085322,non-baseline,1,loormo,NA,NA,imgs/toilet.png,imgs/car.png,1,TRUE,NA
zwkzm0s9ta25cxo,1,550,train,1193,1090532,baseline,NA,yethni,NA,NA,imgs/ruler.png,NA,NA,NA,NA
zwkzm0s9ta25cxo,1,551,attn_pic_selection,1576,1092110,baseline,0,yethni,NA,NA,imgs/ruler.png,imgs/scissors.png,0,TRUE,NA
zwkzm0s9ta25cxo,1,555,train,808,1096938,non-baseline,NA,loormo,NA,NA,imgs/toilet.png,NA,NA,NA,NA
zwkzm0s9ta25cxo,1,556,attn_pic_selection,1342,1098282,non-baseline,0,loormo,NA,NA,imgs/toilet.png,imgs/cellphone.png,0,TRUE,NA
zwkzm0s9ta25cxo,1,561,attn_pic_selection,1380,1104868,non-baseline,1,loormo,NA,NA,imgs/toilet.png,imgs/curtain.png,1,TRUE,NA
zwkzm0s9ta25cxo,1,565,train,1985,1110868,baseline,NA,kuzni,NA,NA,imgs/broom.png,NA,NA,NA,NA
zwkzm0s9ta25cxo,1,566,attn_word_selection,2412,1113282,baseline,0,kuzni,kuzni,kuzmo,imgs/broom.png,NA,NA,TRUE,NA
zwkzm0s9ta25cxo,1,570,train,983,1118298,non-baseline,NA,loormo,NA,NA,imgs/toilet.png,NA,NA,NA,NA
zwkzm0s9ta25cxo,1,571,attn_pic_selection,950,1119250,non-baseline,1,loormo,NA,NA,imgs/toilet.png,imgs/car.png,1,TRUE,NA
zwkzm0s9ta25cxo,1,575,train,2322,1125610,non-baseline,NA,chulmo,NA,NA,imgs/curtain.png,NA,NA,NA,NA
zwkzm0s9ta25cxo,1,576,attn_word_selection,2216,1127828,non-baseline,1,chulmo,chulmo,chulni,imgs/curtain.png,NA,NA,TRUE,NA
zwkzm0s9ta25cxo,1,580,train,1430,1133290,non-baseline,NA,loormo,NA,NA,imgs/toilet.png,NA,NA,NA,NA
zwkzm0s9ta25cxo,1,581,attn_word_selection,2114,1135406,non-baseline,0,loormo,loormo,loorni,imgs/toilet.png,NA,NA,TRUE,NA
zwkzm0s9ta25cxo,1,585,train,3248,1142682,baseline,NA,yethni,NA,NA,imgs/ruler.png,NA,NA,NA,NA
zwkzm0s9ta25cxo,1,586,attn_word_selection,2004,1144688,baseline,0,yethni,yethni,yethmo,imgs/ruler.png,NA,NA,TRUE,NA
zwkzm0s9ta25cxo,1,590,train,10613,1159333,non-baseline,NA,shoofmo,NA,NA,imgs/cellphone.png,NA,NA,NA,NA
zwkzm0s9ta25cxo,1,591,attn_pic_selection,1224,1160560,non-baseline,1,shoofmo,NA,NA,imgs/cellphone.png,imgs/toilet.png,1,TRUE,NA
zwkzm0s9ta25cxo,1,595,train,1775,1166357,baseline,NA,yethni,NA,NA,imgs/ruler.png,NA,NA,NA,NA
zwkzm0s9ta25cxo,1,596,attn_pic_selection,1434,1167793,baseline,0,yethni,NA,NA,imgs/ruler.png,imgs/broom.png,0,TRUE,NA
zwkzm0s9ta25cxo,1,600,train,1622,1173443,baseline,NA,zoofni,NA,NA,imgs/scissors.png,NA,NA,NA,NA
zwkzm0s9ta25cxo,1,601,attn_pic_selection,928,1174374,baseline,1,zoofni,NA,NA,imgs/scissors.png,imgs/broom.png,1,TRUE,NA
zwkzm0s9ta25cxo,1,605,train,1205,1179599,non-baseline,NA,chulmo,NA,NA,imgs/curtain.png,NA,NA,NA,NA
zwkzm0s9ta25cxo,1,606,attn_word_selection,3606,1183207,non-baseline,1,chulmo,chulmo,chulni,imgs/curtain.png,NA,NA,TRUE,NA
zwkzm0s9ta25cxo,1,610,train,1330,1188559,baseline,NA,yethni,NA,NA,imgs/ruler.png,NA,NA,NA,NA
zwkzm0s9ta25cxo,1,611,attn_pic_selection,2530,1191091,baseline,1,yethni,NA,NA,imgs/ruler.png,imgs/broom.png,1,TRUE,NA
zwkzm0s9ta25cxo,1,615,train,1262,1196373,non-baseline,NA,vebmo,NA,NA,imgs/car.png,NA,NA,NA,NA
zwkzm0s9ta25cxo,1,616,attn_word_selection,1998,1198373,non-baseline,1,vebmo,vebmo,vebni,imgs/car.png,NA,NA,TRUE,NA
zwkzm0s9ta25cxo,1,620,train,1233,1203637,baseline,NA,puthni,NA,NA,imgs/ball.png,NA,NA,NA,NA
zwkzm0s9ta25cxo,1,621,attn_word_selection,1922,1205561,baseline,1,puthni,puthni,puthmo,imgs/ball.png,NA,NA,TRUE,NA
zwkzm0s9ta25cxo,1,625,train,859,1210443,baseline,NA,puthni,NA,NA,imgs/ball.png,NA,NA,NA,NA
zwkzm0s9ta25cxo,1,626,attn_word_selection,1560,1212006,baseline,1,puthni,puthni,puthmo,imgs/ball.png,NA,NA,TRUE,NA
zwkzm0s9ta25cxo,1,630,train,1016,1217044,non-baseline,NA,chulmo,NA,NA,imgs/curtain.png,NA,NA,NA,NA
zwkzm0s9ta25cxo,1,631,attn_pic_selection,1834,1218880,non-baseline,1,chulmo,NA,NA,imgs/curtain.png,imgs/cellphone.png,1,TRUE,NA
zwkzm0s9ta25cxo,1,635,train,802,1223694,baseline,NA,puthni,NA,NA,imgs/ball.png,NA,NA,NA,NA
zwkzm0s9ta25cxo,1,636,attn_pic_selection,826,1224522,baseline,0,puthni,NA,NA,imgs/ball.png,imgs/ruler.png,0,TRUE,NA
zwkzm0s9ta25cxo,1,640,train,1781,1230326,non-baseline,NA,chulmo,NA,NA,imgs/curtain.png,NA,NA,NA,NA
zwkzm0s9ta25cxo,1,641,attn_pic_selection,1052,1231380,non-baseline,0,chulmo,NA,NA,imgs/curtain.png,imgs/toilet.png,0,TRUE,NA
zwkzm0s9ta25cxo,1,645,train,1545,1236950,non-baseline,NA,loormo,NA,NA,imgs/toilet.png,NA,NA,NA,NA
zwkzm0s9ta25cxo,1,646,attn_word_selection,2156,1239108,non-baseline,0,loormo,loormo,loorni,imgs/toilet.png,NA,NA,TRUE,NA
zwkzm0s9ta25cxo,1,650,train,2552,1245694,non-baseline,NA,loormo,NA,NA,imgs/toilet.png,NA,NA,NA,NA
zwkzm0s9ta25cxo,1,651,attn_pic_selection,1076,1246772,non-baseline,0,loormo,NA,NA,imgs/toilet.png,imgs/car.png,0,TRUE,NA
zwkzm0s9ta25cxo,1,655,train,6238,1257044,baseline,NA,kuzni,NA,NA,imgs/broom.png,NA,NA,NA,NA
zwkzm0s9ta25cxo,1,656,attn_word_selection,1796,1258842,baseline,0,kuzni,kuzni,kuzmo,imgs/broom.png,NA,NA,TRUE,NA
zwkzm0s9ta25cxo,1,660,train,1378,1264240,baseline,NA,puthni,NA,NA,imgs/ball.png,NA,NA,NA,NA
zwkzm0s9ta25cxo,1,661,attn_word_selection,2294,1266536,baseline,0,puthni,puthni,puthmo,imgs/ball.png,NA,NA,TRUE,NA
zwkzm0s9ta25cxo,1,665,train,1188,1271748,baseline,NA,zoofni,NA,NA,imgs/scissors.png,NA,NA,NA,NA
zwkzm0s9ta25cxo,1,666,attn_word_selection,1302,1273052,baseline,0,zoofni,zoofni,zoofmo,imgs/scissors.png,NA,NA,TRUE,NA
zwkzm0s9ta25cxo,1,670,train,1353,1278420,baseline,NA,zoofni,NA,NA,imgs/scissors.png,NA,NA,NA,NA
zwkzm0s9ta25cxo,1,671,attn_pic_selection,896,1279318,baseline,1,zoofni,NA,NA,imgs/scissors.png,imgs/ruler.png,1,TRUE,NA
zwkzm0s9ta25cxo,1,675,train,1842,1285170,baseline,NA,kuzni,NA,NA,imgs/broom.png,NA,NA,NA,NA
zwkzm0s9ta25cxo,1,676,attn_word_selection,3646,1288818,baseline,1,kuzni,kuzni,kuzmo,imgs/broom.png,NA,NA,TRUE,NA
zwkzm0s9ta25cxo,1,680,train,1359,1294216,non-baseline,NA,loormo,NA,NA,imgs/toilet.png,NA,NA,NA,NA
zwkzm0s9ta25cxo,1,681,attn_pic_selection,1006,1295224,non-baseline,0,loormo,NA,NA,imgs/toilet.png,imgs/curtain.png,0,TRUE,NA
zwkzm0s9ta25cxo,1,685,train,1282,1300528,baseline,NA,yethni,NA,NA,imgs/ruler.png,NA,NA,NA,NA
zwkzm0s9ta25cxo,1,686,attn_word_selection,1702,1302232,baseline,1,yethni,yethni,yethmo,imgs/ruler.png,NA,NA,TRUE,NA
zwkzm0s9ta25cxo,1,690,train,1097,1307364,baseline,NA,yethni,NA,NA,imgs/ruler.png,NA,NA,NA,NA
zwkzm0s9ta25cxo,1,691,attn_word_selection,1850,1309217,baseline,1,yethni,yethni,yethmo,imgs/ruler.png,NA,NA,TRUE,NA
zwkzm0s9ta25cxo,1,695,train,1442,1314679,non-baseline,NA,loormo,NA,NA,imgs/toilet.png,NA,NA,NA,NA
zwkzm0s9ta25cxo,1,696,attn_pic_selection,3669,1318350,non-baseline,0,loormo,NA,NA,imgs/toilet.png,imgs/curtain.png,0,TRUE,NA
zwkzm0s9ta25cxo,1,700,train,1367,1323756,non-baseline,NA,vebmo,NA,NA,imgs/car.png,NA,NA,NA,NA
zwkzm0s9ta25cxo,1,701,attn_word_selection,4982,1328740,non-baseline,0,vebmo,vebmo,vebni,imgs/car.png,NA,NA,TRUE,NA
zwkzm0s9ta25cxo,1,705,train,1636,1334396,non-baseline,NA,chulmo,NA,NA,imgs/curtain.png,NA,NA,NA,NA
zwkzm0s9ta25cxo,1,706,attn_word_selection,2560,1336958,non-baseline,1,chulmo,chulmo,chulni,imgs/curtain.png,NA,NA,TRUE,NA
zwkzm0s9ta25cxo,1,710,train,1071,1342052,baseline,NA,kuzni,NA,NA,imgs/broom.png,NA,NA,NA,NA
zwkzm0s9ta25cxo,1,711,attn_pic_selection,928,1342982,baseline,0,kuzni,NA,NA,imgs/broom.png,imgs/ruler.png,0,TRUE,NA
zwkzm0s9ta25cxo,1,715,train,1013,1348020,non-baseline,NA,loormo,NA,NA,imgs/toilet.png,NA,NA,NA,NA
zwkzm0s9ta25cxo,1,716,attn_word_selection,1898,1349920,non-baseline,0,loormo,loormo,loorni,imgs/toilet.png,NA,NA,TRUE,NA
zwkzm0s9ta25cxo,1,720,train,841,1354778,non-baseline,NA,loormo,NA,NA,imgs/toilet.png,NA,NA,NA,NA
zwkzm0s9ta25cxo,1,721,attn_pic_selection,2318,1357098,non-baseline,0,loormo,NA,NA,imgs/toilet.png,imgs/car.png,0,TRUE,NA
zwkzm0s9ta25cxo,1,725,train,5175,1366312,baseline,NA,kuzni,NA,NA,imgs/broom.png,NA,NA,NA,NA
zwkzm0s9ta25cxo,1,726,attn_pic_selection,864,1367178,baseline,0,kuzni,NA,NA,imgs/broom.png,imgs/ruler.png,0,TRUE,NA
zwkzm0s9ta25cxo,1,728,post_training,11519,1380714,NA,NA,NA,NA,NA,NA,NA,NA,NA,NA
zwkzm0s9ta25cxo,1,729,prac_pic_selection,4428,1385144,non-baseline,0,vebmo,NA,NA,imgs/car.png,imgs/curtain.png,0,TRUE,NA
zwkzm0s9ta25cxo,1,731,prac_pic_selection,1893,1389050,non-baseline,0,chulmo,NA,NA,imgs/curtain.png,imgs/toilet.png,0,TRUE,NA
zwkzm0s9ta25cxo,1,733,prac_pic_selection,2176,1393244,baseline,1,yethni,NA,NA,imgs/ruler.png,imgs/ball.png,1,TRUE,NA
zwkzm0s9ta25cxo,1,735,prac_pic_selection,2891,1398144,non-baseline,1,loormo,NA,NA,imgs/toilet.png,imgs/cellphone.png,1,TRUE,NA
zwkzm0s9ta25cxo,1,739,prac_word_selection,3005,1408870,non-baseline,1,vebmo,vebmo,vebni,imgs/car.png,NA,NA,TRUE,NA
zwkzm0s9ta25cxo,1,741,prac_word_selection,3144,1414034,non-baseline,1,shoofmo,shoofmo,shoofni,imgs/cellphone.png,NA,NA,TRUE,NA
zwkzm0s9ta25cxo,1,743,prac_word_selection,3148,1419190,baseline,0,zoofni,zoofni,zoofmo,imgs/scissors.png,NA,NA,TRUE,NA
zwkzm0s9ta25cxo,1,745,prac_word_selection,2891,1424088,non-baseline,0,loormo,loormo,loorni,imgs/toilet.png,NA,NA,TRUE,NA
zwkzm0s9ta25cxo,1,747,prac_pic_selection,3156,1429260,non-baseline,1,shoofmo,NA,NA,imgs/cellphone.png,imgs/curtain.png,1,TRUE,NA
zwkzm0s9ta25cxo,1,749,prac_word_selection,4880,1436150,baseline,1,kuzni,kuzni,kuzmo,imgs/broom.png,NA,NA,TRUE,NA
zwkzm0s9ta25cxo,1,751,prac_word_selection,2039,1440206,baseline,0,yethni,yethni,yethmo,imgs/ruler.png,NA,NA,TRUE,NA
zwkzm0s9ta25cxo,1,753,prac_pic_selection,2196,1444408,baseline,0,zoofni,NA,NA,imgs/scissors.png,imgs/ball.png,0,TRUE,NA
zwkzm0s9ta25cxo,1,755,prac_word_selection,4288,1450706,baseline,0,puthni,puthni,puthmo,imgs/ball.png,NA,NA,TRUE,NA
zwkzm0s9ta25cxo,1,757,prac_pic_selection,2499,1455214,baseline,0,kuzni,NA,NA,imgs/broom.png,imgs/scissors.png,0,TRUE,NA
zwkzm0s9ta25cxo,1,759,prac_pic_selection,2380,1459604,baseline,1,puthni,NA,NA,imgs/ball.png,imgs/scissors.png,1,TRUE,NA
zwkzm0s9ta25cxo,1,761,post_practice,32664,1494284,NA,NA,NA,NA,NA,NA,NA,NA,NA,NA
zwkzm0s9ta25cxo,1,762,2afc,17741,1512027,baseline,0,puthni,puthmo,NA,NA,NA,NA,FALSE,FALSE
zwkzm0s9ta25cxo,1,763,2afc,5662,1517690,novel,1,NA,tobmo,NA,NA,NA,NA,NA,FALSE
zwkzm0s9ta25cxo,1,764,2afc,6130,1523822,novel,0,NA,thapmo,NA,NA,NA,NA,NA,FALSE
zwkzm0s9ta25cxo,1,765,2afc,7780,1531604,baseline,1,kuzni,kuzni,NA,NA,NA,NA,TRUE,TRUE
zwkzm0s9ta25cxo,1,766,2afc,3006,1534612,non-baseline,0,vebmo,vebmo,NA,NA,NA,NA,TRUE,FALSE
zwkzm0s9ta25cxo,1,767,2afc,5052,1539666,novel,1,NA,ruzmo,NA,NA,NA,NA,NA,FALSE
zwkzm0s9ta25cxo,1,768,2afc,6007,1545674,non-baseline,0,loormo,loormo,NA,NA,NA,NA,TRUE,FALSE
zwkzm0s9ta25cxo,1,769,2afc,3052,1548728,baseline,1,zoofni,zoofni,NA,NA,NA,NA,TRUE,TRUE
zwkzm0s9ta25cxo,1,770,2afc,5654,1554384,novel,1,NA,dukni,NA,NA,NA,NA,NA,TRUE
zwkzm0s9ta25cxo,1,771,2afc,5428,1559814,novel,1,NA,basni,NA,NA,NA,NA,NA,TRUE
zwkzm0s9ta25cxo,1,772,2afc,4600,1564416,non-baseline,0,shoofmo,shoofmo,NA,NA,NA,NA,TRUE,FALSE
zwkzm0s9ta25cxo,1,773,2afc,2460,1566878,non-baseline,0,chulmo,chulmo,NA,NA,NA,NA,TRUE,FALSE
zwkzm0s9ta25cxo,1,774,2afc,6155,1573034,baseline,1,yethni,yethni,NA,NA,NA,NA,TRUE,TRUE
zwkzm0s9ta25cxo,1,775,2afc,6498,1579534,novel,0,NA,cralni,NA,NA,NA,NA,NA,TRUE
zwkzm0s9ta25cxo,1,776,2afc,4098,1583634,novel,1,NA,glootmo,NA,NA,NA,NA,NA,FALSE
zwkzm0s9ta25cxo,1,777,2afc,3874,1587510,novel,1,NA,slebni,NA,NA,NA,NA,NA,TRUE
z6yvqfhb6d1u6f3,2,8,train,2865,35418,baseline,NA,glootmo,NA,NA,imgs/car.png,NA,NA,NA,NA
z6yvqfhb6d1u6f3,2,9,attn_pic_selection,1646,37068,baseline,0,glootmo,NA,NA,imgs/car.png,imgs/broom.png,0,TRUE,NA
z6yvqfhb6d1u6f3,2,13,train,1603,42702,non-baseline,NA,thapni,NA,NA,imgs/ruler.png,NA,NA,NA,NA
z6yvqfhb6d1u6f3,2,14,attn_pic_selection,1214,43918,non-baseline,0,thapni,NA,NA,imgs/ruler.png,imgs/scissors.png,0,TRUE,NA
z6yvqfhb6d1u6f3,2,18,train,1189,49136,non-baseline,NA,ruzni,NA,NA,imgs/hammer.png,NA,NA,NA,NA
z6yvqfhb6d1u6f3,2,19,attn_word_selection,1544,50686,non-baseline,0,ruzni,ruzni,ruzmo,imgs/hammer.png,NA,NA,TRUE,NA
z6yvqfhb6d1u6f3,2,23,train,837,55553,non-baseline,NA,thapni,NA,NA,imgs/ruler.png,NA,NA,NA,NA
z6yvqfhb6d1u6f3,2,24,attn_pic_selection,1130,56686,non-baseline,1,thapni,NA,NA,imgs/ruler.png,imgs/ball.png,1,TRUE,NA
z6yvqfhb6d1u6f3,2,28,train,1373,62087,baseline,NA,glootmo,NA,NA,imgs/car.png,NA,NA,NA,NA
z6yvqfhb6d1u6f3,2,29,attn_word_selection,1713,63821,baseline,1,glootmo,glootmo,glootni,imgs/car.png,NA,NA,TRUE,NA
z6yvqfhb6d1u6f3,2,33,train,654,68504,non-baseline,NA,vebni,NA,NA,imgs/scissors.png,NA,NA,NA,NA
z6yvqfhb6d1u6f3,2,34,attn_pic_selection,930,69438,non-baseline,1,vebni,NA,NA,imgs/scissors.png,imgs/clock.png,1,TRUE,NA
z6yvqfhb6d1u6f3,2,38,train,968,74438,non-baseline,NA,slebni,NA,NA,imgs/curtain.png,NA,NA,NA,NA
z6yvqfhb6d1u6f3,2,39,attn_pic_selection,880,75322,non-baseline,1,slebni,NA,NA,imgs/curtain.png,imgs/clock.png,1,TRUE,NA
z6yvqfhb6d1u6f3,2,43,train,1088,80439,non-baseline,NA,yethni,NA,NA,imgs/ball.png,NA,NA,NA,NA
z6yvqfhb6d1u6f3,2,44,attn_pic_selection,963,81405,non-baseline,1,yethni,NA,NA,imgs/ball.png,imgs/hammer.png,1,TRUE,NA
z6yvqfhb6d1u6f3,2,48,train,902,86340,non-baseline,NA,vebni,NA,NA,imgs/scissors.png,NA,NA,NA,NA
z6yvqfhb6d1u6f3,2,49,attn_pic_selection,763,87106,non-baseline,0,vebni,NA,NA,imgs/scissors.png,imgs/clock.png,0,TRUE,NA
z6yvqfhb6d1u6f3,2,53,train,1056,92190,baseline,NA,shoofmo,NA,NA,imgs/cellphone.png,NA,NA,NA,NA
z6yvqfhb6d1u6f3,2,54,attn_pic_selection,713,92906,baseline,0,shoofmo,NA,NA,imgs/cellphone.png,imgs/rocket.png,0,TRUE,NA
z6yvqfhb6d1u6f3,2,58,train,775,97707,baseline,NA,glootmo,NA,NA,imgs/car.png,NA,NA,NA,NA
z6yvqfhb6d1u6f3,2,59,attn_word_selection,1297,99008,baseline,1,glootmo,glootmo,glootni,imgs/car.png,NA,NA,TRUE,NA
z6yvqfhb6d1u6f3,2,63,train,754,103791,baseline,NA,loormo,NA,NA,imgs/rocket.png,NA,NA,NA,NA
z6yvqfhb6d1u6f3,2,64,attn_pic_selection,847,104641,baseline,0,loormo,NA,NA,imgs/rocket.png,imgs/car.png,0,TRUE,NA
z6yvqfhb6d1u6f3,2,68,train,714,109375,baseline,NA,loormo,NA,NA,imgs/rocket.png,NA,NA,NA,NA
z6yvqfhb6d1u6f3,2,69,attn_word_selection,829,110208,baseline,0,loormo,loormo,loorni,imgs/rocket.png,NA,NA,TRUE,NA
z6yvqfhb6d1u6f3,2,73,train,686,114925,non-baseline,NA,zoofni,NA,NA,imgs/bell.png,NA,NA,NA,NA
z6yvqfhb6d1u6f3,2,74,attn_word_selection,1596,116526,non-baseline,1,zoofni,zoofni,zoofmo,imgs/bell.png,NA,NA,TRUE,NA
z6yvqfhb6d1u6f3,2,78,train,554,121109,baseline,NA,shoofmo,NA,NA,imgs/cellphone.png,NA,NA,NA,NA
z6yvqfhb6d1u6f3,2,79,attn_word_selection,947,122060,baseline,0,shoofmo,shoofmo,shoofni,imgs/cellphone.png,NA,NA,TRUE,NA
z6yvqfhb6d1u6f3,2,83,train,509,126594,non-baseline,NA,ruzni,NA,NA,imgs/hammer.png,NA,NA,NA,NA
z6yvqfhb6d1u6f3,2,84,attn_word_selection,746,127343,non-baseline,0,ruzni,ruzni,ruzmo,imgs/hammer.png,NA,NA,TRUE,NA
z6yvqfhb6d1u6f3,2,88,train,535,131910,baseline,NA,tobmo,NA,NA,imgs/broom.png,NA,NA,NA,NA
z6yvqfhb6d1u6f3,2,89,attn_pic_selection,963,132877,baseline,1,tobmo,NA,NA,imgs/broom.png,imgs/cellphone.png,1,TRUE,NA
z6yvqfhb6d1u6f3,2,93,train,526,137428,baseline,NA,shoofmo,NA,NA,imgs/cellphone.png,NA,NA,NA,NA
z6yvqfhb6d1u6f3,2,94,attn_word_selection,930,138362,baseline,1,shoofmo,shoofmo,shoofni,imgs/cellphone.png,NA,NA,TRUE,NA
z6yvqfhb6d1u6f3,2,98,train,739,143128,non-baseline,NA,wakni,NA,NA,imgs/clock.png,NA,NA,NA,NA
z6yvqfhb6d1u6f3,2,99,attn_pic_selection,880,144012,non-baseline,1,wakni,NA,NA,imgs/clock.png,imgs/hammer.png,1,TRUE,NA
z6yvqfhb6d1u6f3,2,103,train,727,148763,non-baseline,NA,kuzni,NA,NA,imgs/toilet.png,NA,NA,NA,NA
z6yvqfhb6d1u6f3,2,104,attn_word_selection,1229,149995,non-baseline,0,kuzni,kuzni,kuzmo,imgs/toilet.png,NA,NA,TRUE,NA
z6yvqfhb6d1u6f3,2,108,train,641,154662,non-baseline,NA,yethni,NA,NA,imgs/ball.png,NA,NA,NA,NA
z6yvqfhb6d1u6f3,2,109,attn_pic_selection,831,155496,non-baseline,1,yethni,NA,NA,imgs/ball.png,imgs/hammer.png,1,TRUE,NA
z6yvqfhb6d1u6f3,2,113,train,540,160064,non-baseline,NA,thapni,NA,NA,imgs/ruler.png,NA,NA,NA,NA
z6yvqfhb6d1u6f3,2,114,attn_pic_selection,1379,161447,non-baseline,0,thapni,NA,NA,imgs/ruler.png,imgs/clock.png,0,TRUE,NA
z6yvqfhb6d1u6f3,2,118,train,1733,167214,non-baseline,NA,ruzni,NA,NA,imgs/hammer.png,NA,NA,NA,NA
z6yvqfhb6d1u6f3,2,119,attn_word_selection,1079,168297,non-baseline,1,ruzni,ruzni,ruzmo,imgs/hammer.png,NA,NA,TRUE,NA
z6yvqfhb6d1u6f3,2,123,train,13089,185415,baseline,NA,tobmo,NA,NA,imgs/broom.png,NA,NA,NA,NA
z6yvqfhb6d1u6f3,2,124,attn_pic_selection,1196,186615,baseline,0,tobmo,NA,NA,imgs/broom.png,imgs/car.png,0,TRUE,NA
z6yvqfhb6d1u6f3,2,128,train,1260,191900,baseline,NA,tobmo,NA,NA,imgs/broom.png,NA,NA,NA,NA
z6yvqfhb6d1u6f3,2,129,attn_word_selection,1530,193433,baseline,1,tobmo,tobmo,tobni,imgs/broom.png,NA,NA,TRUE,NA
z6yvqfhb6d1u6f3,2,133,train,575,198034,non-baseline,NA,wakni,NA,NA,imgs/clock.png,NA,NA,NA,NA
z6yvqfhb6d1u6f3,2,134,attn_word_selection,797,198834,non-baseline,0,wakni,wakni,wakmo,imgs/clock.png,NA,NA,TRUE,NA
z6yvqfhb6d1u6f3,2,138,train,555,203417,non-baseline,NA,zoofni,NA,NA,imgs/bell.png,NA,NA,NA,NA
z6yvqfhb6d1u6f3,2,139,attn_word_selection,1012,204435,non-baseline,0,zoofni,zoofni,zoofmo,imgs/bell.png,NA,NA,TRUE,NA
z6yvqfhb6d1u6f3,2,143,train,497,208952,non-baseline,NA,kuzni,NA,NA,imgs/toilet.png,NA,NA,NA,NA
z6yvqfhb6d1u6f3,2,144,attn_word_selection,946,209901,non-baseline,1,kuzni,kuzni,kuzmo,imgs/toilet.png,NA,NA,TRUE,NA
z6yvqfhb6d1u6f3,2,148,train,558,214485,baseline,NA,loormo,NA,NA,imgs/rocket.png,NA,NA,NA,NA
z6yvqfhb6d1u6f3,2,149,attn_word_selection,995,215485,baseline,1,loormo,loormo,loorni,imgs/rocket.png,NA,NA,TRUE,NA
z6yvqfhb6d1u6f3,2,153,train,690,220219,baseline,NA,glootmo,NA,NA,imgs/car.png,NA,NA,NA,NA
z6yvqfhb6d1u6f3,2,154,attn_word_selection,947,221169,baseline,0,glootmo,glootmo,glootni,imgs/car.png,NA,NA,TRUE,NA
z6yvqfhb6d1u6f3,2,158,train,558,225753,baseline,NA,loormo,NA,NA,imgs/rocket.png,NA,NA,NA,NA
z6yvqfhb6d1u6f3,2,159,attn_word_selection,1079,226836,baseline,1,loormo,loormo,loorni,imgs/rocket.png,NA,NA,TRUE,NA
z6yvqfhb6d1u6f3,2,163,train,528,231387,baseline,NA,shoofmo,NA,NA,imgs/cellphone.png,NA,NA,NA,NA
z6yvqfhb6d1u6f3,2,164,attn_word_selection,880,232272,baseline,1,shoofmo,shoofmo,shoofni,imgs/cellphone.png,NA,NA,TRUE,NA
z6yvqfhb6d1u6f3,2,168,train,611,236904,baseline,NA,shoofmo,NA,NA,imgs/cellphone.png,NA,NA,NA,NA
z6yvqfhb6d1u6f3,2,169,attn_pic_selection,864,237771,baseline,1,shoofmo,NA,NA,imgs/cellphone.png,imgs/car.png,1,TRUE,NA
z6yvqfhb6d1u6f3,2,173,train,569,242370,non-baseline,NA,wakni,NA,NA,imgs/clock.png,NA,NA,NA,NA
z6yvqfhb6d1u6f3,2,174,attn_pic_selection,1315,243688,non-baseline,0,wakni,NA,NA,imgs/clock.png,imgs/scissors.png,0,TRUE,NA
z6yvqfhb6d1u6f3,2,178,train,612,248322,baseline,NA,tobmo,NA,NA,imgs/broom.png,NA,NA,NA,NA
z6yvqfhb6d1u6f3,2,179,attn_word_selection,1195,249522,baseline,0,tobmo,tobmo,tobni,imgs/broom.png,NA,NA,TRUE,NA
z6yvqfhb6d1u6f3,2,183,train,540,254089,baseline,NA,tobmo,NA,NA,imgs/broom.png,NA,NA,NA,NA
z6yvqfhb6d1u6f3,2,184,attn_pic_selection,863,254956,baseline,1,tobmo,NA,NA,imgs/broom.png,imgs/car.png,1,TRUE,NA
z6yvqfhb6d1u6f3,2,188,train,638,259623,non-baseline,NA,yethni,NA,NA,imgs/ball.png,NA,NA,NA,NA
z6yvqfhb6d1u6f3,2,189,attn_pic_selection,813,260439,non-baseline,0,yethni,NA,NA,imgs/ball.png,imgs/bell.png,0,TRUE,NA
z6yvqfhb6d1u6f3,2,193,train,556,265023,baseline,NA,tobmo,NA,NA,imgs/broom.png,NA,NA,NA,NA
z6yvqfhb6d1u6f3,2,194,attn_word_selection,947,265974,baseline,1,tobmo,tobmo,tobni,imgs/broom.png,NA,NA,TRUE,NA
z6yvqfhb6d1u6f3,2,198,train,526,270524,baseline,NA,glootmo,NA,NA,imgs/car.png,NA,NA,NA,NA
z6yvqfhb6d1u6f3,2,199,attn_pic_selection,831,271358,baseline,0,glootmo,NA,NA,imgs/car.png,imgs/cellphone.png,0,TRUE,NA
z6yvqfhb6d1u6f3,2,203,train,677,276058,non-baseline,NA,kuzni,NA,NA,imgs/toilet.png,NA,NA,NA,NA
z6yvqfhb6d1u6f3,2,204,attn_word_selection,995,277058,non-baseline,0,kuzni,kuzni,kuzmo,imgs/toilet.png,NA,NA,TRUE,NA
z6yvqfhb6d1u6f3,2,208,train,647,281725,non-baseline,NA,slebni,NA,NA,imgs/curtain.png,NA,NA,NA,NA
z6yvqfhb6d1u6f3,2,209,attn_word_selection,1030,282759,non-baseline,0,slebni,slebni,slebmo,imgs/curtain.png,NA,NA,TRUE,NA
z6yvqfhb6d1u6f3,2,213,train,577,287359,baseline,NA,shoofmo,NA,NA,imgs/cellphone.png,NA,NA,NA,NA
z6yvqfhb6d1u6f3,2,214,attn_pic_selection,981,288343,baseline,1,shoofmo,NA,NA,imgs/cellphone.png,imgs/broom.png,1,TRUE,NA
z6yvqfhb6d1u6f3,2,218,train,556,292927,non-baseline,NA,zoofni,NA,NA,imgs/bell.png,NA,NA,NA,NA
z6yvqfhb6d1u6f3,2,219,attn_pic_selection,763,293694,non-baseline,1,zoofni,NA,NA,imgs/bell.png,imgs/ruler.png,1,TRUE,NA
z6yvqfhb6d1u6f3,2,223,train,473,298194,non-baseline,NA,slebni,NA,NA,imgs/curtain.png,NA,NA,NA,NA
z6yvqfhb6d1u6f3,2,224,attn_word_selection,830,299028,non-baseline,1,slebni,slebni,slebmo,imgs/curtain.png,NA,NA,TRUE,NA
z6yvqfhb6d1u6f3,2,228,train,637,303694,baseline,NA,glootmo,NA,NA,imgs/car.png,NA,NA,NA,NA
z6yvqfhb6d1u6f3,2,229,attn_pic_selection,747,304445,baseline,0,glootmo,NA,NA,imgs/car.png,imgs/cellphone.png,0,TRUE,NA
z6yvqfhb6d1u6f3,2,233,train,874,309344,non-baseline,NA,vebni,NA,NA,imgs/scissors.png,NA,NA,NA,NA
z6yvqfhb6d1u6f3,2,234,attn_word_selection,863,310211,non-baseline,0,vebni,vebni,vebmo,imgs/scissors.png,NA,NA,TRUE,NA
z6yvqfhb6d1u6f3,2,238,train,632,314878,baseline,NA,loormo,NA,NA,imgs/rocket.png,NA,NA,NA,NA
z6yvqfhb6d1u6f3,2,239,attn_word_selection,981,315862,baseline,1,loormo,loormo,loorni,imgs/rocket.png,NA,NA,TRUE,NA
z6yvqfhb6d1u6f3,2,243,train,736,320629,baseline,NA,loormo,NA,NA,imgs/rocket.png,NA,NA,NA,NA
z6yvqfhb6d1u6f3,2,244,attn_word_selection,913,321546,baseline,0,loormo,loormo,loorni,imgs/rocket.png,NA,NA,TRUE,NA
z6yvqfhb6d1u6f3,2,246,between_block,1488,325046,NA,NA,NA,NA,NA,NA,NA,NA,NA,NA
z6yvqfhb6d1u6f3,2,249,train,662,327729,non-baseline,NA,kuzni,NA,NA,imgs/toilet.png,NA,NA,NA,NA
z6yvqfhb6d1u6f3,2,250,attn_pic_selection,781,328514,non-baseline,1,kuzni,NA,NA,imgs/toilet.png,imgs/ball.png,1,TRUE,NA
z6yvqfhb6d1u6f3,2,254,train,558,333097,non-baseline,NA,wakni,NA,NA,imgs/clock.png,NA,NA,NA,NA
z6yvqfhb6d1u6f3,2,255,attn_word_selection,980,334081,non-baseline,1,wakni,wakni,wakmo,imgs/clock.png,NA,NA,TRUE,NA
z6yvqfhb6d1u6f3,2,259,train,494,338597,baseline,NA,shoofmo,NA,NA,imgs/cellphone.png,NA,NA,NA,NA
z6yvqfhb6d1u6f3,2,260,attn_word_selection,845,339448,baseline,1,shoofmo,shoofmo,shoofni,imgs/cellphone.png,NA,NA,TRUE,NA
z6yvqfhb6d1u6f3,2,264,train,658,344148,baseline,NA,loormo,NA,NA,imgs/rocket.png,NA,NA,NA,NA
z6yvqfhb6d1u6f3,2,265,attn_word_selection,729,344881,baseline,1,loormo,loormo,loorni,imgs/rocket.png,NA,NA,TRUE,NA
z6yvqfhb6d1u6f3,2,269,train,608,349515,non-baseline,NA,ruzni,NA,NA,imgs/hammer.png,NA,NA,NA,NA
z6yvqfhb6d1u6f3,2,270,attn_word_selection,946,350465,non-baseline,0,ruzni,ruzni,ruzmo,imgs/hammer.png,NA,NA,TRUE,NA
z6yvqfhb6d1u6f3,2,274,train,478,354966,non-baseline,NA,zoofni,NA,NA,imgs/bell.png,NA,NA,NA,NA
z6yvqfhb6d1u6f3,2,275,attn_word_selection,647,355616,non-baseline,0,zoofni,zoofni,zoofmo,imgs/bell.png,NA,NA,TRUE,NA
z6yvqfhb6d1u6f3,2,279,train,479,360133,non-baseline,NA,vebni,NA,NA,imgs/scissors.png,NA,NA,NA,NA
z6yvqfhb6d1u6f3,2,280,attn_word_selection,730,360866,non-baseline,0,vebni,vebni,vebmo,imgs/scissors.png,NA,NA,TRUE,NA
z6yvqfhb6d1u6f3,2,284,train,549,365450,baseline,NA,glootmo,NA,NA,imgs/car.png,NA,NA,NA,NA
z6yvqfhb6d1u6f3,2,285,attn_pic_selection,1112,366567,baseline,0,glootmo,NA,NA,imgs/car.png,imgs/broom.png,0,TRUE,NA
z6yvqfhb6d1u6f3,2,289,train,971,371567,baseline,NA,tobmo,NA,NA,imgs/broom.png,NA,NA,NA,NA
z6yvqfhb6d1u6f3,2,290,attn_word_selection,980,372551,baseline,1,tobmo,tobmo,tobni,imgs/broom.png,NA,NA,TRUE,NA
z6yvqfhb6d1u6f3,2,294,train,928,377501,non-baseline,NA,thapni,NA,NA,imgs/ruler.png,NA,NA,NA,NA
z6yvqfhb6d1u6f3,2,295,attn_word_selection,746,378252,non-baseline,0,thapni,thapni,thapmo,imgs/ruler.png,NA,NA,TRUE,NA
z6yvqfhb6d1u6f3,2,299,train,822,383102,baseline,NA,loormo,NA,NA,imgs/rocket.png,NA,NA,NA,NA
z6yvqfhb6d1u6f3,2,300,attn_word_selection,630,383735,baseline,0,loormo,loormo,loorni,imgs/rocket.png,NA,NA,TRUE,NA
z6yvqfhb6d1u6f3,2,304,train,722,388486,baseline,NA,shoofmo,NA,NA,imgs/cellphone.png,NA,NA,NA,NA
z6yvqfhb6d1u6f3,2,305,attn_word_selection,913,389402,baseline,1,shoofmo,shoofmo,shoofni,imgs/cellphone.png,NA,NA,TRUE,NA
z6yvqfhb6d1u6f3,2,309,train,608,394036,baseline,NA,loormo,NA,NA,imgs/rocket.png,NA,NA,NA,NA
z6yvqfhb6d1u6f3,2,310,attn_word_selection,829,394870,baseline,1,loormo,loormo,loorni,imgs/rocket.png,NA,NA,TRUE,NA
z6yvqfhb6d1u6f3,2,314,train,537,399436,baseline,NA,tobmo,NA,NA,imgs/broom.png,NA,NA,NA,NA
z6yvqfhb6d1u6f3,2,315,attn_word_selection,831,400271,baseline,1,tobmo,tobmo,tobni,imgs/broom.png,NA,NA,TRUE,NA
z6yvqfhb6d1u6f3,2,319,train,483,404787,baseline,NA,glootmo,NA,NA,imgs/car.png,NA,NA,NA,NA
z6yvqfhb6d1u6f3,2,320,attn_pic_selection,798,405588,baseline,0,glootmo,NA,NA,imgs/car.png,imgs/cellphone.png,0,TRUE,NA
z6yvqfhb6d1u6f3,2,324,train,572,410188,baseline,NA,shoofmo,NA,NA,imgs/cellphone.png,NA,NA,NA,NA
z6yvqfhb6d1u6f3,2,325,attn_pic_selection,730,410921,baseline,1,shoofmo,NA,NA,imgs/cellphone.png,imgs/rocket.png,1,TRUE,NA
z6yvqfhb6d1u6f3,2,329,train,407,415355,non-baseline,NA,zoofni,NA,NA,imgs/bell.png,NA,NA,NA,NA
z6yvqfhb6d1u6f3,2,330,attn_word_selection,696,416055,non-baseline,0,zoofni,zoofni,zoofmo,imgs/bell.png,NA,NA,TRUE,NA
z6yvqfhb6d1u6f3,2,334,train,460,420539,baseline,NA,tobmo,NA,NA,imgs/broom.png,NA,NA,NA,NA
z6yvqfhb6d1u6f3,2,335,attn_word_selection,762,421306,baseline,0,tobmo,tobmo,tobni,imgs/broom.png,NA,NA,TRUE,NA
z6yvqfhb6d1u6f3,2,339,train,857,426190,baseline,NA,glootmo,NA,NA,imgs/car.png,NA,NA,NA,NA
z6yvqfhb6d1u6f3,2,340,attn_pic_selection,813,427007,baseline,1,glootmo,NA,NA,imgs/car.png,imgs/cellphone.png,1,TRUE,NA
z6yvqfhb6d1u6f3,2,344,train,770,431808,baseline,NA,tobmo,NA,NA,imgs/broom.png,NA,NA,NA,NA
z6yvqfhb6d1u6f3,2,345,attn_pic_selection,713,432524,baseline,1,tobmo,NA,NA,imgs/broom.png,imgs/rocket.png,1,TRUE,NA
z6yvqfhb6d1u6f3,2,349,train,558,437108,baseline,NA,shoofmo,NA,NA,imgs/cellphone.png,NA,NA,NA,NA
z6yvqfhb6d1u6f3,2,350,attn_word_selection,2729,439841,baseline,1,shoofmo,shoofmo,shoofni,imgs/cellphone.png,NA,NA,TRUE,NA
z6yvqfhb6d1u6f3,2,354,train,1389,445258,non-baseline,NA,slebni,NA,NA,imgs/curtain.png,NA,NA,NA,NA
z6yvqfhb6d1u6f3,2,355,attn_pic_selection,997,446259,non-baseline,0,slebni,NA,NA,imgs/curtain.png,imgs/clock.png,0,TRUE,NA
z6yvqfhb6d1u6f3,2,359,train,777,451061,non-baseline,NA,kuzni,NA,NA,imgs/toilet.png,NA,NA,NA,NA
z6yvqfhb6d1u6f3,2,360,attn_pic_selection,780,451846,non-baseline,1,kuzni,NA,NA,imgs/toilet.png,imgs/ruler.png,1,TRUE,NA
z6yvqfhb6d1u6f3,2,364,train,539,456415,baseline,NA,loormo,NA,NA,imgs/rocket.png,NA,NA,NA,NA
z6yvqfhb6d1u6f3,2,365,attn_word_selection,614,457032,baseline,0,loormo,loormo,loorni,imgs/rocket.png,NA,NA,TRUE,NA
z6yvqfhb6d1u6f3,2,369,train,661,461719,non-baseline,NA,yethni,NA,NA,imgs/ball.png,NA,NA,NA,NA
z6yvqfhb6d1u6f3,2,370,attn_pic_selection,732,462454,non-baseline,0,yethni,NA,NA,imgs/ball.png,imgs/ruler.png,0,TRUE,NA
z6yvqfhb6d1u6f3,2,374,train,713,467189,non-baseline,NA,thapni,NA,NA,imgs/ruler.png,NA,NA,NA,NA
z6yvqfhb6d1u6f3,2,375,attn_word_selection,997,468190,non-baseline,0,thapni,thapni,thapmo,imgs/ruler.png,NA,NA,TRUE,NA
z6yvqfhb6d1u6f3,2,379,train,503,472725,non-baseline,NA,ruzni,NA,NA,imgs/hammer.png,NA,NA,NA,NA
z6yvqfhb6d1u6f3,2,380,attn_pic_selection,780,473508,non-baseline,1,ruzni,NA,NA,imgs/hammer.png,imgs/toilet.png,1,TRUE,NA
z6yvqfhb6d1u6f3,2,384,train,645,478176,non-baseline,NA,thapni,NA,NA,imgs/ruler.png,NA,NA,NA,NA
z6yvqfhb6d1u6f3,2,385,attn_word_selection,1247,479427,non-baseline,1,thapni,thapni,thapmo,imgs/ruler.png,NA,NA,TRUE,NA
z6yvqfhb6d1u6f3,2,389,train,537,483995,non-baseline,NA,vebni,NA,NA,imgs/scissors.png,NA,NA,NA,NA
z6yvqfhb6d1u6f3,2,390,attn_pic_selection,730,484728,non-baseline,1,vebni,NA,NA,imgs/scissors.png,imgs/hammer.png,1,TRUE,NA
z6yvqfhb6d1u6f3,2,394,train,462,489212,baseline,NA,tobmo,NA,NA,imgs/broom.png,NA,NA,NA,NA
z6yvqfhb6d1u6f3,2,395,attn_pic_selection,648,489863,baseline,0,tobmo,NA,NA,imgs/broom.png,imgs/rocket.png,0,TRUE,NA
z6yvqfhb6d1u6f3,2,399,train,579,494464,non-baseline,NA,slebni,NA,NA,imgs/curtain.png,NA,NA,NA,NA
z6yvqfhb6d1u6f3,2,400,attn_pic_selection,694,495163,non-baseline,1,slebni,NA,NA,imgs/curtain.png,imgs/scissors.png,1,TRUE,NA
z6yvqfhb6d1u6f3,2,404,train,521,499714,non-baseline,NA,yethni,NA,NA,imgs/ball.png,NA,NA,NA,NA
z6yvqfhb6d1u6f3,2,405,attn_word_selection,1162,500881,non-baseline,1,yethni,yethni,yethmo,imgs/ball.png,NA,NA,TRUE,NA
z6yvqfhb6d1u6f3,2,409,train,507,505414,non-baseline,NA,yethni,NA,NA,imgs/ball.png,NA,NA,NA,NA
z6yvqfhb6d1u6f3,2,410,attn_word_selection,814,506231,non-baseline,0,yethni,yethni,yethmo,imgs/ball.png,NA,NA,TRUE,NA
z6yvqfhb6d1u6f3,2,414,train,512,510765,baseline,NA,glootmo,NA,NA,imgs/car.png,NA,NA,NA,NA
z6yvqfhb6d1u6f3,2,415,attn_pic_selection,747,511515,baseline,0,glootmo,NA,NA,imgs/car.png,imgs/rocket.png,0,TRUE,NA
z6yvqfhb6d1u6f3,2,419,train,653,516199,baseline,NA,glootmo,NA,NA,imgs/car.png,NA,NA,NA,NA
z6yvqfhb6d1u6f3,2,420,attn_word_selection,612,516816,baseline,0,glootmo,glootmo,glootni,imgs/car.png,NA,NA,TRUE,NA
z6yvqfhb6d1u6f3,2,424,train,517,521367,baseline,NA,shoofmo,NA,NA,imgs/cellphone.png,NA,NA,NA,NA
z6yvqfhb6d1u6f3,2,425,attn_word_selection,812,522183,baseline,1,shoofmo,shoofmo,shoofni,imgs/cellphone.png,NA,NA,TRUE,NA
z6yvqfhb6d1u6f3,2,429,train,505,526718,non-baseline,NA,vebni,NA,NA,imgs/scissors.png,NA,NA,NA,NA
z6yvqfhb6d1u6f3,2,430,attn_word_selection,796,527517,non-baseline,1,vebni,vebni,vebmo,imgs/scissors.png,NA,NA,TRUE,NA
z6yvqfhb6d1u6f3,2,434,train,442,531984,baseline,NA,loormo,NA,NA,imgs/rocket.png,NA,NA,NA,NA
z6yvqfhb6d1u6f3,2,435,attn_pic_selection,697,532685,baseline,1,loormo,NA,NA,imgs/rocket.png,imgs/car.png,1,TRUE,NA
z6yvqfhb6d1u6f3,2,439,train,420,537135,baseline,NA,loormo,NA,NA,imgs/rocket.png,NA,NA,NA,NA
z6yvqfhb6d1u6f3,2,440,attn_pic_selection,897,538035,baseline,0,loormo,NA,NA,imgs/rocket.png,imgs/broom.png,0,TRUE,NA
z6yvqfhb6d1u6f3,2,444,train,476,542535,baseline,NA,tobmo,NA,NA,imgs/broom.png,NA,NA,NA,NA
z6yvqfhb6d1u6f3,2,445,attn_pic_selection,646,543185,baseline,0,tobmo,NA,NA,imgs/broom.png,imgs/rocket.png,0,TRUE,NA
z6yvqfhb6d1u6f3,2,449,train,492,547703,baseline,NA,shoofmo,NA,NA,imgs/cellphone.png,NA,NA,NA,NA
z6yvqfhb6d1u6f3,2,450,attn_word_selection,1662,549369,baseline,0,shoofmo,shoofmo,shoofni,imgs/cellphone.png,NA,NA,TRUE,NA
z6yvqfhb6d1u6f3,2,454,train,443,553837,non-baseline,NA,ruzni,NA,NA,imgs/hammer.png,NA,NA,NA,NA
z6yvqfhb6d1u6f3,2,455,attn_pic_selection,679,554520,non-baseline,0,ruzni,NA,NA,imgs/hammer.png,imgs/toilet.png,0,TRUE,NA
z6yvqfhb6d1u6f3,2,459,train,657,559204,baseline,NA,glootmo,NA,NA,imgs/car.png,NA,NA,NA,NA
z6yvqfhb6d1u6f3,2,460,attn_word_selection,861,560071,baseline,1,glootmo,glootmo,glootni,imgs/car.png,NA,NA,TRUE,NA
z6yvqfhb6d1u6f3,2,464,train,505,564604,non-baseline,NA,kuzni,NA,NA,imgs/toilet.png,NA,NA,NA,NA
z6yvqfhb6d1u6f3,2,465,attn_word_selection,1063,565671,non-baseline,0,kuzni,kuzni,kuzmo,imgs/toilet.png,NA,NA,TRUE,NA
z6yvqfhb6d1u6f3,2,469,train,539,570238,non-baseline,NA,wakni,NA,NA,imgs/clock.png,NA,NA,NA,NA
z6yvqfhb6d1u6f3,2,470,attn_pic_selection,748,570989,non-baseline,1,wakni,NA,NA,imgs/clock.png,imgs/toilet.png,1,TRUE,NA
z6yvqfhb6d1u6f3,2,474,train,703,575723,non-baseline,NA,zoofni,NA,NA,imgs/bell.png,NA,NA,NA,NA
z6yvqfhb6d1u6f3,2,475,attn_word_selection,997,576723,non-baseline,1,zoofni,zoofni,zoofmo,imgs/bell.png,NA,NA,TRUE,NA
z6yvqfhb6d1u6f3,2,479,train,534,581273,non-baseline,NA,slebni,NA,NA,imgs/curtain.png,NA,NA,NA,NA
z6yvqfhb6d1u6f3,2,480,attn_pic_selection,796,582073,non-baseline,0,slebni,NA,NA,imgs/curtain.png,imgs/scissors.png,0,TRUE,NA
z6yvqfhb6d1u6f3,2,484,train,504,586607,non-baseline,NA,wakni,NA,NA,imgs/clock.png,NA,NA,NA,NA
z6yvqfhb6d1u6f3,2,485,attn_pic_selection,679,587290,non-baseline,0,wakni,NA,NA,imgs/clock.png,imgs/bell.png,0,TRUE,NA
z6yvqfhb6d1u6f3,2,487,between_block,1024,590323,NA,NA,NA,NA,NA,NA,NA,NA,NA,NA
z6yvqfhb6d1u6f3,2,490,train,415,592757,baseline,NA,loormo,NA,NA,imgs/rocket.png,NA,NA,NA,NA
z6yvqfhb6d1u6f3,2,491,attn_pic_selection,614,593374,baseline,0,loormo,NA,NA,imgs/rocket.png,imgs/broom.png,0,TRUE,NA
z6yvqfhb6d1u6f3,2,495,train,453,597858,non-baseline,NA,vebni,NA,NA,imgs/scissors.png,NA,NA,NA,NA
z6yvqfhb6d1u6f3,2,496,attn_word_selection,795,598657,non-baseline,0,vebni,vebni,vebmo,imgs/scissors.png,NA,NA,TRUE,NA
z6yvqfhb6d1u6f3,2,500,train,473,603158,non-baseline,NA,thapni,NA,NA,imgs/ruler.png,NA,NA,NA,NA
z6yvqfhb6d1u6f3,2,501,attn_pic_selection,680,603841,non-baseline,0,thapni,NA,NA,imgs/ruler.png,imgs/clock.png,0,TRUE,NA
z6yvqfhb6d1u6f3,2,505,train,491,608358,baseline,NA,glootmo,NA,NA,imgs/car.png,NA,NA,NA,NA
z6yvqfhb6d1u6f3,2,506,attn_pic_selection,612,608975,baseline,0,glootmo,NA,NA,imgs/car.png,imgs/rocket.png,0,TRUE,NA
z6yvqfhb6d1u6f3,2,510,train,446,613442,baseline,NA,tobmo,NA,NA,imgs/broom.png,NA,NA,NA,NA
z6yvqfhb6d1u6f3,2,511,attn_word_selection,896,614342,baseline,0,tobmo,tobmo,tobni,imgs/broom.png,NA,NA,TRUE,NA
z6yvqfhb6d1u6f3,2,515,train,1022,619393,non-baseline,NA,kuzni,NA,NA,imgs/toilet.png,NA,NA,NA,NA
z6yvqfhb6d1u6f3,2,516,attn_pic_selection,1013,620410,non-baseline,0,kuzni,NA,NA,imgs/toilet.png,imgs/hammer.png,0,TRUE,NA
z6yvqfhb6d1u6f3,2,520,train,1063,625494,non-baseline,NA,slebni,NA,NA,imgs/curtain.png,NA,NA,NA,NA
z6yvqfhb6d1u6f3,2,521,attn_word_selection,913,626410,non-baseline,1,slebni,slebni,slebmo,imgs/curtain.png,NA,NA,TRUE,NA
z6yvqfhb6d1u6f3,2,525,train,520,630961,baseline,NA,shoofmo,NA,NA,imgs/cellphone.png,NA,NA,NA,NA
z6yvqfhb6d1u6f3,2,526,attn_pic_selection,1212,632178,baseline,0,shoofmo,NA,NA,imgs/cellphone.png,imgs/broom.png,0,TRUE,NA
z6yvqfhb6d1u6f3,2,530,train,677,636895,baseline,NA,shoofmo,NA,NA,imgs/cellphone.png,NA,NA,NA,NA
z6yvqfhb6d1u6f3,2,531,attn_word_selection,1047,637945,baseline,0,shoofmo,shoofmo,shoofni,imgs/cellphone.png,NA,NA,TRUE,NA
z6yvqfhb6d1u6f3,2,535,train,1428,643395,non-baseline,NA,wakni,NA,NA,imgs/clock.png,NA,NA,NA,NA
z6yvqfhb6d1u6f3,2,536,attn_pic_selection,1147,644546,non-baseline,1,wakni,NA,NA,imgs/clock.png,imgs/bell.png,1,TRUE,NA
z6yvqfhb6d1u6f3,2,540,train,777,649346,baseline,NA,loormo,NA,NA,imgs/rocket.png,NA,NA,NA,NA
z6yvqfhb6d1u6f3,2,541,attn_word_selection,1096,650446,baseline,1,loormo,loormo,loorni,imgs/rocket.png,NA,NA,TRUE,NA
z6yvqfhb6d1u6f3,2,545,train,774,655246,baseline,NA,loormo,NA,NA,imgs/rocket.png,NA,NA,NA,NA
z6yvqfhb6d1u6f3,2,546,attn_word_selection,1146,656397,baseline,0,loormo,loormo,loorni,imgs/rocket.png,NA,NA,TRUE,NA
z6yvqfhb6d1u6f3,2,550,train,462,660897,baseline,NA,shoofmo,NA,NA,imgs/cellphone.png,NA,NA,NA,NA
z6yvqfhb6d1u6f3,2,551,attn_pic_selection,713,661614,baseline,0,shoofmo,NA,NA,imgs/cellphone.png,imgs/car.png,0,TRUE,NA
z6yvqfhb6d1u6f3,2,555,train,545,666181,baseline,NA,tobmo,NA,NA,imgs/broom.png,NA,NA,NA,NA
z6yvqfhb6d1u6f3,2,556,attn_word_selection,763,666948,baseline,0,tobmo,tobmo,tobni,imgs/broom.png,NA,NA,TRUE,NA
z6yvqfhb6d1u6f3,2,560,train,493,671465,baseline,NA,loormo,NA,NA,imgs/rocket.png,NA,NA,NA,NA
z6yvqfhb6d1u6f3,2,561,attn_word_selection,947,672415,baseline,0,loormo,loormo,loorni,imgs/rocket.png,NA,NA,TRUE,NA
z6yvqfhb6d1u6f3,2,565,train,492,676932,baseline,NA,tobmo,NA,NA,imgs/broom.png,NA,NA,NA,NA
z6yvqfhb6d1u6f3,2,566,attn_word_selection,730,677665,baseline,0,tobmo,tobmo,tobni,imgs/broom.png,NA,NA,TRUE,NA
z6yvqfhb6d1u6f3,2,570,train,438,682133,baseline,NA,shoofmo,NA,NA,imgs/cellphone.png,NA,NA,NA,NA
z6yvqfhb6d1u6f3,2,571,attn_pic_selection,729,682866,baseline,1,shoofmo,NA,NA,imgs/cellphone.png,imgs/car.png,1,TRUE,NA
z6yvqfhb6d1u6f3,2,575,train,462,687367,non-baseline,NA,ruzni,NA,NA,imgs/hammer.png,NA,NA,NA,NA
z6yvqfhb6d1u6f3,2,576,attn_word_selection,779,688150,non-baseline,0,ruzni,ruzni,ruzmo,imgs/hammer.png,NA,NA,TRUE,NA
z6yvqfhb6d1u6f3,2,580,train,458,692633,baseline,NA,shoofmo,NA,NA,imgs/cellphone.png,NA,NA,NA,NA
z6yvqfhb6d1u6f3,2,581,attn_word_selection,780,693418,baseline,0,shoofmo,shoofmo,shoofni,imgs/cellphone.png,NA,NA,TRUE,NA
z6yvqfhb6d1u6f3,2,585,train,470,697917,non-baseline,NA,thapni,NA,NA,imgs/ruler.png,NA,NA,NA,NA
z6yvqfhb6d1u6f3,2,586,attn_word_selection,796,698717,non-baseline,0,thapni,thapni,thapmo,imgs/ruler.png,NA,NA,TRUE,NA
z6yvqfhb6d1u6f3,2,590,train,445,703185,non-baseline,NA,kuzni,NA,NA,imgs/toilet.png,NA,NA,NA,NA
z6yvqfhb6d1u6f3,2,591,attn_word_selection,1579,704768,non-baseline,1,kuzni,kuzni,kuzmo,imgs/toilet.png,NA,NA,TRUE,NA
z6yvqfhb6d1u6f3,2,595,train,434,709235,non-baseline,NA,zoofni,NA,NA,imgs/bell.png,NA,NA,NA,NA
z6yvqfhb6d1u6f3,2,596,attn_pic_selection,780,710019,non-baseline,0,zoofni,NA,NA,imgs/bell.png,imgs/scissors.png,0,TRUE,NA
z6yvqfhb6d1u6f3,2,600,train,593,714636,baseline,NA,loormo,NA,NA,imgs/rocket.png,NA,NA,NA,NA
z6yvqfhb6d1u6f3,2,601,attn_pic_selection,730,715370,baseline,0,loormo,NA,NA,imgs/rocket.png,imgs/broom.png,0,TRUE,NA
z6yvqfhb6d1u6f3,2,605,train,537,719937,baseline,NA,tobmo,NA,NA,imgs/broom.png,NA,NA,NA,NA
z6yvqfhb6d1u6f3,2,606,attn_word_selection,813,720753,baseline,0,tobmo,tobmo,tobni,imgs/broom.png,NA,NA,TRUE,NA
z6yvqfhb6d1u6f3,2,610,train,503,725287,baseline,NA,glootmo,NA,NA,imgs/car.png,NA,NA,NA,NA
z6yvqfhb6d1u6f3,2,611,attn_word_selection,863,726153,baseline,1,glootmo,glootmo,glootni,imgs/car.png,NA,NA,TRUE,NA
z6yvqfhb6d1u6f3,2,615,train,1182,731371,baseline,NA,glootmo,NA,NA,imgs/car.png,NA,NA,NA,NA
z6yvqfhb6d1u6f3,2,616,attn_pic_selection,763,732137,baseline,0,glootmo,NA,NA,imgs/car.png,imgs/cellphone.png,0,TRUE,NA
z6yvqfhb6d1u6f3,2,620,train,525,736688,non-baseline,NA,yethni,NA,NA,imgs/ball.png,NA,NA,NA,NA
z6yvqfhb6d1u6f3,2,621,attn_word_selection,846,737538,non-baseline,0,yethni,yethni,yethmo,imgs/ball.png,NA,NA,TRUE,NA
z6yvqfhb6d1u6f3,2,625,train,951,742523,baseline,NA,shoofmo,NA,NA,imgs/cellphone.png,NA,NA,NA,NA
z6yvqfhb6d1u6f3,2,626,attn_pic_selection,3413,745939,baseline,1,shoofmo,NA,NA,imgs/cellphone.png,imgs/car.png,1,TRUE,NA
z6yvqfhb6d1u6f3,2,630,train,671,750640,non-baseline,NA,wakni,NA,NA,imgs/clock.png,NA,NA,NA,NA
z6yvqfhb6d1u6f3,2,631,attn_word_selection,713,751356,non-baseline,0,wakni,wakni,wakmo,imgs/clock.png,NA,NA,TRUE,NA
z6yvqfhb6d1u6f3,2,635,train,472,755857,non-baseline,NA,wakni,NA,NA,imgs/clock.png,NA,NA,NA,NA
z6yvqfhb6d1u6f3,2,636,attn_pic_selection,797,756657,non-baseline,1,wakni,NA,NA,imgs/clock.png,imgs/scissors.png,1,TRUE,NA
z6yvqfhb6d1u6f3,2,640,train,1200,761891,non-baseline,NA,zoofni,NA,NA,imgs/bell.png,NA,NA,NA,NA
z6yvqfhb6d1u6f3,2,641,attn_word_selection,646,762540,non-baseline,0,zoofni,zoofni,zoofmo,imgs/bell.png,NA,NA,TRUE,NA
z6yvqfhb6d1u6f3,2,645,train,464,767041,non-baseline,NA,ruzni,NA,NA,imgs/hammer.png,NA,NA,NA,NA
z6yvqfhb6d1u6f3,2,646,attn_word_selection,630,767675,non-baseline,0,ruzni,ruzni,ruzmo,imgs/hammer.png,NA,NA,TRUE,NA
z6yvqfhb6d1u6f3,2,650,train,434,772142,non-baseline,NA,thapni,NA,NA,imgs/ruler.png,NA,NA,NA,NA
z6yvqfhb6d1u6f3,2,651,attn_pic_selection,763,772908,non-baseline,1,thapni,NA,NA,imgs/ruler.png,imgs/toilet.png,1,TRUE,NA
z6yvqfhb6d1u6f3,2,655,train,705,777642,non-baseline,NA,vebni,NA,NA,imgs/scissors.png,NA,NA,NA,NA
z6yvqfhb6d1u6f3,2,656,attn_pic_selection,830,778476,non-baseline,0,vebni,NA,NA,imgs/scissors.png,imgs/ruler.png,0,TRUE,NA
z6yvqfhb6d1u6f3,2,660,train,603,783109,non-baseline,NA,vebni,NA,NA,imgs/scissors.png,NA,NA,NA,NA
z6yvqfhb6d1u6f3,2,661,attn_word_selection,896,784009,non-baseline,1,vebni,vebni,vebmo,imgs/scissors.png,NA,NA,TRUE,NA
z6yvqfhb6d1u6f3,2,665,train,593,788627,non-baseline,NA,kuzni,NA,NA,imgs/toilet.png,NA,NA,NA,NA
z6yvqfhb6d1u6f3,2,666,attn_word_selection,863,789494,non-baseline,1,kuzni,kuzni,kuzmo,imgs/toilet.png,NA,NA,TRUE,NA
z6yvqfhb6d1u6f3,2,670,train,570,794093,non-baseline,NA,slebni,NA,NA,imgs/curtain.png,NA,NA,NA,NA
z6yvqfhb6d1u6f3,2,671,attn_pic_selection,713,794810,non-baseline,1,slebni,NA,NA,imgs/curtain.png,imgs/hammer.png,1,TRUE,NA
z6yvqfhb6d1u6f3,2,675,train,492,799327,baseline,NA,tobmo,NA,NA,imgs/broom.png,NA,NA,NA,NA
z6yvqfhb6d1u6f3,2,676,attn_word_selection,880,800211,baseline,1,tobmo,tobmo,tobni,imgs/broom.png,NA,NA,TRUE,NA
z6yvqfhb6d1u6f3,2,680,train,502,804745,non-baseline,NA,slebni,NA,NA,imgs/curtain.png,NA,NA,NA,NA
z6yvqfhb6d1u6f3,2,681,attn_word_selection,779,805528,non-baseline,0,slebni,slebni,slebmo,imgs/curtain.png,NA,NA,TRUE,NA
z6yvqfhb6d1u6f3,2,685,train,506,810062,baseline,NA,loormo,NA,NA,imgs/rocket.png,NA,NA,NA,NA
z6yvqfhb6d1u6f3,2,686,attn_pic_selection,930,810995,baseline,1,loormo,NA,NA,imgs/rocket.png,imgs/broom.png,1,TRUE,NA
z6yvqfhb6d1u6f3,2,690,train,522,815546,baseline,NA,tobmo,NA,NA,imgs/broom.png,NA,NA,NA,NA
z6yvqfhb6d1u6f3,2,691,attn_pic_selection,713,816262,baseline,0,tobmo,NA,NA,imgs/broom.png,imgs/cellphone.png,0,TRUE,NA
z6yvqfhb6d1u6f3,2,695,train,512,820799,non-baseline,NA,yethni,NA,NA,imgs/ball.png,NA,NA,NA,NA
z6yvqfhb6d1u6f3,2,696,attn_pic_selection,612,821413,non-baseline,0,yethni,NA,NA,imgs/ball.png,imgs/bell.png,0,TRUE,NA
z6yvqfhb6d1u6f3,2,700,train,477,825913,non-baseline,NA,ruzni,NA,NA,imgs/hammer.png,NA,NA,NA,NA
z6yvqfhb6d1u6f3,2,701,attn_word_selection,1313,827230,non-baseline,1,ruzni,ruzni,ruzmo,imgs/hammer.png,NA,NA,TRUE,NA
z6yvqfhb6d1u6f3,2,705,train,775,832031,non-baseline,NA,zoofni,NA,NA,imgs/bell.png,NA,NA,NA,NA
z6yvqfhb6d1u6f3,2,706,attn_word_selection,946,832981,non-baseline,1,zoofni,zoofni,zoofmo,imgs/bell.png,NA,NA,TRUE,NA
z6yvqfhb6d1u6f3,2,710,train,558,837565,baseline,NA,glootmo,NA,NA,imgs/car.png,NA,NA,NA,NA
z6yvqfhb6d1u6f3,2,711,attn_word_selection,962,838532,baseline,0,glootmo,glootmo,glootni,imgs/car.png,NA,NA,TRUE,NA
z6yvqfhb6d1u6f3,2,715,train,702,843266,baseline,NA,glootmo,NA,NA,imgs/car.png,NA,NA,NA,NA
z6yvqfhb6d1u6f3,2,716,attn_pic_selection,696,843965,baseline,0,glootmo,NA,NA,imgs/car.png,imgs/broom.png,0,TRUE,NA
z6yvqfhb6d1u6f3,2,720,train,806,848799,baseline,NA,glootmo,NA,NA,imgs/car.png,NA,NA,NA,NA
z6yvqfhb6d1u6f3,2,721,attn_word_selection,913,849716,baseline,1,glootmo,glootmo,glootni,imgs/car.png,NA,NA,TRUE,NA
z6yvqfhb6d1u6f3,2,725,train,660,854400,non-baseline,NA,yethni,NA,NA,imgs/ball.png,NA,NA,NA,NA
z6yvqfhb6d1u6f3,2,726,attn_word_selection,763,855166,non-baseline,0,yethni,yethni,yethmo,imgs/ball.png,NA,NA,TRUE,NA
z6yvqfhb6d1u6f3,2,728,post_training,4100,861284,NA,NA,NA,NA,NA,NA,NA,NA,NA,NA
z6yvqfhb6d1u6f3,2,729,prac_word_selection,2879,864167,baseline,0,tobmo,tobmo,tobni,imgs/broom.png,NA,NA,TRUE,NA
z6yvqfhb6d1u6f3,2,731,prac_pic_selection,2421,868601,baseline,0,loormo,NA,NA,imgs/rocket.png,imgs/car.png,0,TRUE,NA
z6yvqfhb6d1u6f3,2,733,prac_pic_selection,1409,872019,non-baseline,0,thapni,NA,NA,imgs/ruler.png,imgs/bell.png,0,TRUE,NA
z6yvqfhb6d1u6f3,2,735,prac_word_selection,1771,875802,non-baseline,0,kuzni,kuzni,kuzmo,imgs/toilet.png,NA,NA,TRUE,NA
z6yvqfhb6d1u6f3,2,737,prac_pic_selection,1220,879035,non-baseline,0,vebni,NA,NA,imgs/scissors.png,imgs/hammer.png,0,TRUE,NA
z6yvqfhb6d1u6f3,2,739,prac_word_selection,6923,887970,non-baseline,1,yethni,yethni,yethmo,imgs/ball.png,NA,NA,TRUE,NA
z6yvqfhb6d1u6f3,2,741,prac_pic_selection,3356,893336,baseline,1,tobmo,NA,NA,imgs/broom.png,imgs/cellphone.png,1,TRUE,NA
z6yvqfhb6d1u6f3,2,743,prac_word_selection,1751,897104,non-baseline,1,ruzni,ruzni,ruzmo,imgs/hammer.png,NA,NA,TRUE,NA
z6yvqfhb6d1u6f3,2,745,prac_word_selection,1516,900638,non-baseline,0,vebni,vebni,vebmo,imgs/scissors.png,NA,NA,TRUE,NA
z6yvqfhb6d1u6f3,2,747,prac_pic_selection,1293,903938,non-baseline,0,slebni,NA,NA,imgs/curtain.png,imgs/ruler.png,0,TRUE,NA
z6yvqfhb6d1u6f3,2,749,prac_word_selection,1636,907588,non-baseline,0,slebni,slebni,slebmo,imgs/curtain.png,NA,NA,TRUE,NA
z6yvqfhb6d1u6f3,2,751,prac_word_selection,1459,911056,non-baseline,0,thapni,thapni,thapmo,imgs/ruler.png,NA,NA,TRUE,NA
z6yvqfhb6d1u6f3,2,753,prac_word_selection,1568,914639,baseline,0,loormo,loormo,loorni,imgs/rocket.png,NA,NA,TRUE,NA
z6yvqfhb6d1u6f3,2,755,prac_pic_selection,1372,918023,non-baseline,0,kuzni,NA,NA,imgs/toilet.png,imgs/hammer.png,0,TRUE,NA
z6yvqfhb6d1u6f3,2,757,prac_pic_selection,3194,923223,baseline,1,shoofmo,NA,NA,imgs/cellphone.png,imgs/rocket.png,1,TRUE,NA
z6yvqfhb6d1u6f3,2,759,prac_word_selection,1437,926673,baseline,0,shoofmo,shoofmo,shoofni,imgs/cellphone.png,NA,NA,TRUE,NA
z6yvqfhb6d1u6f3,2,761,prac_pic_selection,1620,930307,non-baseline,0,zoofni,NA,NA,imgs/bell.png,imgs/toilet.png,0,TRUE,NA
z6yvqfhb6d1u6f3,2,763,prac_pic_selection,1435,933758,non-baseline,0,yethni,NA,NA,imgs/ball.png,imgs/ruler.png,0,TRUE,NA
z6yvqfhb6d1u6f3,2,765,prac_word_selection,5758,941525,non-baseline,1,zoofni,zoofni,zoofmo,imgs/bell.png,NA,NA,TRUE,NA
z6yvqfhb6d1u6f3,2,767,prac_pic_selection,1457,944992,non-baseline,0,ruzni,NA,NA,imgs/hammer.png,imgs/clock.png,0,TRUE,NA
z6yvqfhb6d1u6f3,2,769,prac_word_selection,1373,948376,baseline,0,glootmo,glootmo,glootni,imgs/car.png,NA,NA,TRUE,NA
z6yvqfhb6d1u6f3,2,771,prac_pic_selection,989,951376,non-baseline,0,wakni,NA,NA,imgs/clock.png,imgs/bell.png,0,TRUE,NA
z6yvqfhb6d1u6f3,2,773,prac_pic_selection,1259,954643,baseline,0,glootmo,NA,NA,imgs/car.png,imgs/rocket.png,0,TRUE,NA
z6yvqfhb6d1u6f3,2,775,prac_word_selection,1301,957960,non-baseline,0,wakni,wakni,wakmo,imgs/clock.png,NA,NA,TRUE,NA
z6yvqfhb6d1u6f3,2,777,post_practice,6649,966627,NA,NA,NA,NA,NA,NA,NA,NA,NA,NA
z6yvqfhb6d1u6f3,2,778,2afc,2831,969461,non-baseline,1,wakni,wakni,NA,NA,NA,NA,TRUE,FALSE
z6yvqfhb6d1u6f3,2,780,2afc,1464,973028,non-baseline,1,ruzni,ruzni,NA,NA,NA,NA,TRUE,FALSE
z6yvqfhb6d1u6f3,2,781,2afc,2398,975428,non-baseline,1,yethni,yethni,NA,NA,NA,NA,TRUE,FALSE
z6yvqfhb6d1u6f3,2,782,2afc,3281,978712,novel,0,NA,dukni,NA,NA,NA,NA,NA,FALSE
z6yvqfhb6d1u6f3,2,783,2afc,3564,982279,novel,0,NA,jesmo,NA,NA,NA,NA,NA,TRUE
z6yvqfhb6d1u6f3,2,784,2afc,1898,984179,baseline,0,shoofmo,shoofmo,NA,NA,NA,NA,TRUE,TRUE
z6yvqfhb6d1u6f3,2,785,2afc,2447,986629,novel,1,NA,basni,NA,NA,NA,NA,NA,FALSE
z6yvqfhb6d1u6f3,2,786,2afc,1631,988263,baseline,1,loormo,loormo,NA,NA,NA,NA,TRUE,TRUE
z6yvqfhb6d1u6f3,2,787,2afc,2230,990496,novel,1,NA,hargmo,NA,NA,NA,NA,NA,TRUE
z6yvqfhb6d1u6f3,2,788,2afc,1630,992129,baseline,0,glootmo,glootmo,NA,NA,NA,NA,TRUE,TRUE
z6yvqfhb6d1u6f3,2,789,2afc,1915,994047,novel,0,NA,puthni,NA,NA,NA,NA,NA,FALSE
z6yvqfhb6d1u6f3,2,790,2afc,2480,996529,novel,0,NA,fupni,NA,NA,NA,NA,NA,FALSE
z6yvqfhb6d1u6f3,2,791,2afc,2265,998797,baseline,1,tobmo,tobmo,NA,NA,NA,NA,TRUE,TRUE
z6yvqfhb6d1u6f3,2,792,2afc,2131,1000930,novel,0,NA,cralmo,NA,NA,NA,NA,NA,TRUE
1ymgm6qz43e7dwq,2,8,train,8562,77235,baseline,NA,jesni,NA,NA,imgs/car.png,NA,NA,NA,NA
1ymgm6qz43e7dwq,2,9,attn_pic_selection,4118,81355,baseline,0,jesni,NA,NA,imgs/car.png,imgs/ball.png,0,TRUE,NA
1ymgm6qz43e7dwq,2,13,train,1701,87107,baseline,NA,jesni,NA,NA,imgs/car.png,NA,NA,NA,NA
1ymgm6qz43e7dwq,2,14,attn_word_selection,3575,90684,baseline,0,jesni,jesni,jesmo,imgs/car.png,NA,NA,TRUE,NA
1ymgm6qz43e7dwq,2,18,train,5068,99787,non-baseline,NA,chulmo,NA,NA,imgs/broom.png,NA,NA,NA,NA
1ymgm6qz43e7dwq,2,19,attn_pic_selection,1527,101315,non-baseline,0,chulmo,NA,NA,imgs/broom.png,imgs/hammer.png,0,TRUE,NA
1ymgm6qz43e7dwq,2,23,train,4375,109731,baseline,NA,wakni,NA,NA,imgs/rocket.png,NA,NA,NA,NA
1ymgm6qz43e7dwq,2,24,attn_word_selection,2558,112291,baseline,1,wakni,wakni,wakmo,imgs/rocket.png,NA,NA,TRUE,NA
1ymgm6qz43e7dwq,2,28,train,3816,120155,non-baseline,NA,ruzmo,NA,NA,imgs/bell.png,NA,NA,NA,NA
1ymgm6qz43e7dwq,2,29,attn_word_selection,1822,121979,non-baseline,1,ruzmo,ruzmo,ruzni,imgs/bell.png,NA,NA,TRUE,NA
1ymgm6qz43e7dwq,2,33,train,3681,129691,baseline,NA,dukni,NA,NA,imgs/clock.png,NA,NA,NA,NA
1ymgm6qz43e7dwq,2,34,attn_pic_selection,4191,133883,baseline,0,dukni,NA,NA,imgs/clock.png,imgs/ball.png,0,TRUE,NA
1ymgm6qz43e7dwq,2,38,train,2402,140323,baseline,NA,wakni,NA,NA,imgs/rocket.png,NA,NA,NA,NA
1ymgm6qz43e7dwq,2,39,attn_word_selection,1718,142043,baseline,1,wakni,wakni,wakmo,imgs/rocket.png,NA,NA,TRUE,NA
1ymgm6qz43e7dwq,2,43,train,3757,149827,non-baseline,NA,loormo,NA,NA,imgs/hammer.png,NA,NA,NA,NA
1ymgm6qz43e7dwq,2,44,attn_pic_selection,1462,151291,non-baseline,1,loormo,NA,NA,imgs/hammer.png,imgs/toilet.png,1,TRUE,NA
1ymgm6qz43e7dwq,2,48,train,2640,157979,baseline,NA,wakni,NA,NA,imgs/rocket.png,NA,NA,NA,NA
1ymgm6qz43e7dwq,2,49,attn_pic_selection,1263,159243,baseline,1,wakni,NA,NA,imgs/rocket.png,imgs/ball.png,1,TRUE,NA
1ymgm6qz43e7dwq,2,53,train,1778,165067,baseline,NA,dukni,NA,NA,imgs/clock.png,NA,NA,NA,NA
1ymgm6qz43e7dwq,2,54,attn_pic_selection,1383,166451,baseline,1,dukni,NA,NA,imgs/clock.png,imgs/car.png,1,TRUE,NA
1ymgm6qz43e7dwq,2,58,train,1331,171819,baseline,NA,dukni,NA,NA,imgs/clock.png,NA,NA,NA,NA
1ymgm6qz43e7dwq,2,59,attn_word_selection,2342,174163,baseline,1,dukni,dukni,dukmo,imgs/clock.png,NA,NA,TRUE,NA
1ymgm6qz43e7dwq,2,63,train,4123,182331,non-baseline,NA,yethmo,NA,NA,imgs/cellphone.png,NA,NA,NA,NA
1ymgm6qz43e7dwq,2,64,attn_pic_selection,951,183283,non-baseline,1,yethmo,NA,NA,imgs/cellphone.png,imgs/hammer.png,1,TRUE,NA
1ymgm6qz43e7dwq,2,68,train,982,188291,baseline,NA,jesni,NA,NA,imgs/car.png,NA,NA,NA,NA
1ymgm6qz43e7dwq,2,69,attn_pic_selection,950,189243,baseline,1,jesni,NA,NA,imgs/car.png,imgs/clock.png,1,TRUE,NA
1ymgm6qz43e7dwq,2,73,train,7393,200683,non-baseline,NA,shoofmo,NA,NA,imgs/curtain.png,NA,NA,NA,NA
1ymgm6qz43e7dwq,2,74,attn_pic_selection,1175,201859,non-baseline,1,shoofmo,NA,NA,imgs/curtain.png,imgs/ruler.png,1,TRUE,NA
1ymgm6qz43e7dwq,2,78,train,1509,207403,baseline,NA,dukni,NA,NA,imgs/clock.png,NA,NA,NA,NA
1ymgm6qz43e7dwq,2,79,attn_word_selection,1502,208907,baseline,1,dukni,dukni,dukmo,imgs/clock.png,NA,NA,TRUE,NA
1ymgm6qz43e7dwq,2,83,train,932,213867,baseline,NA,jesni,NA,NA,imgs/car.png,NA,NA,NA,NA
1ymgm6qz43e7dwq,2,84,attn_pic_selection,831,214699,baseline,1,jesni,NA,NA,imgs/car.png,imgs/clock.png,1,TRUE,NA
1ymgm6qz43e7dwq,2,88,train,5062,223803,non-baseline,NA,tobmo,NA,NA,imgs/ruler.png,NA,NA,NA,NA
1ymgm6qz43e7dwq,2,89,attn_word_selection,2910,226715,non-baseline,1,tobmo,tobmo,tobni,imgs/ruler.png,NA,NA,TRUE,NA
1ymgm6qz43e7dwq,2,93,train,6555,237299,non-baseline,NA,thapmo,NA,NA,imgs/toilet.png,NA,NA,NA,NA
1ymgm6qz43e7dwq,2,94,attn_pic_selection,863,238163,non-baseline,1,thapmo,NA,NA,imgs/toilet.png,imgs/hammer.png,1,TRUE,NA
1ymgm6qz43e7dwq,2,98,train,904,243083,non-baseline,NA,thapmo,NA,NA,imgs/toilet.png,NA,NA,NA,NA
1ymgm6qz43e7dwq,2,99,attn_pic_selection,1495,244579,non-baseline,1,thapmo,NA,NA,imgs/toilet.png,imgs/scissors.png,1,TRUE,NA
1ymgm6qz43e7dwq,2,103,train,7343,255963,baseline,NA,basni,NA,NA,imgs/ball.png,NA,NA,NA,NA
1ymgm6qz43e7dwq,2,104,attn_pic_selection,3471,259435,baseline,1,basni,NA,NA,imgs/ball.png,imgs/rocket.png,1,TRUE,NA
1ymgm6qz43e7dwq,2,108,train,1478,264939,non-baseline,NA,yethmo,NA,NA,imgs/cellphone.png,NA,NA,NA,NA
1ymgm6qz43e7dwq,2,109,attn_pic_selection,2847,267787,non-baseline,0,yethmo,NA,NA,imgs/cellphone.png,imgs/hammer.png,0,TRUE,NA
1ymgm6qz43e7dwq,2,113,train,1056,272867,non-baseline,NA,puthmo,NA,NA,imgs/scissors.png,NA,NA,NA,NA
1ymgm6qz43e7dwq,2,114,attn_word_selection,8414,281283,non-baseline,1,puthmo,puthmo,puthni,imgs/scissors.png,NA,NA,TRUE,NA
1ymgm6qz43e7dwq,2,118,train,3080,288387,baseline,NA,dukni,NA,NA,imgs/clock.png,NA,NA,NA,NA
1ymgm6qz43e7dwq,2,119,attn_pic_selection,3462,291851,baseline,1,dukni,NA,NA,imgs/clock.png,imgs/rocket.png,1,TRUE,NA
1ymgm6qz43e7dwq,2,123,train,658,296523,non-baseline,NA,yethmo,NA,NA,imgs/cellphone.png,NA,NA,NA,NA
1ymgm6qz43e7dwq,2,124,attn_word_selection,959,297484,non-baseline,1,yethmo,yethmo,yethni,imgs/cellphone.png,NA,NA,TRUE,NA
1ymgm6qz43e7dwq,2,128,train,783,302307,baseline,NA,wakni,NA,NA,imgs/rocket.png,NA,NA,NA,NA
1ymgm6qz43e7dwq,2,129,attn_word_selection,926,303235,baseline,0,wakni,wakni,wakmo,imgs/rocket.png,NA,NA,TRUE,NA
1ymgm6qz43e7dwq,2,133,train,820,308091,non-baseline,NA,ruzmo,NA,NA,imgs/bell.png,NA,NA,NA,NA
1ymgm6qz43e7dwq,2,134,attn_word_selection,974,309067,non-baseline,0,ruzmo,ruzmo,ruzni,imgs/bell.png,NA,NA,TRUE,NA
1ymgm6qz43e7dwq,2,138,train,1488,314595,non-baseline,NA,tobmo,NA,NA,imgs/ruler.png,NA,NA,NA,NA
1ymgm6qz43e7dwq,2,139,attn_pic_selection,1983,316579,non-baseline,1,tobmo,NA,NA,imgs/ruler.png,imgs/scissors.png,1,TRUE,NA
1ymgm6qz43e7dwq,2,143,train,750,321371,non-baseline,NA,puthmo,NA,NA,imgs/scissors.png,NA,NA,NA,NA
1ymgm6qz43e7dwq,2,144,attn_word_selection,1270,322643,non-baseline,0,puthmo,puthmo,puthni,imgs/scissors.png,NA,NA,TRUE,NA
1ymgm6qz43e7dwq,2,148,train,1752,328435,baseline,NA,basni,NA,NA,imgs/ball.png,NA,NA,NA,NA
1ymgm6qz43e7dwq,2,149,attn_pic_selection,1639,330075,baseline,0,basni,NA,NA,imgs/ball.png,imgs/clock.png,0,TRUE,NA
1ymgm6qz43e7dwq,2,153,train,3272,337395,non-baseline,NA,loormo,NA,NA,imgs/hammer.png,NA,NA,NA,NA
1ymgm6qz43e7dwq,2,154,attn_word_selection,1006,338403,non-baseline,0,loormo,loormo,loorni,imgs/hammer.png,NA,NA,TRUE,NA
1ymgm6qz43e7dwq,2,158,train,621,343059,non-baseline,NA,puthmo,NA,NA,imgs/scissors.png,NA,NA,NA,NA
1ymgm6qz43e7dwq,2,159,attn_pic_selection,1368,344428,non-baseline,0,puthmo,NA,NA,imgs/scissors.png,imgs/broom.png,0,TRUE,NA
1ymgm6qz43e7dwq,2,163,train,3405,351875,non-baseline,NA,chulmo,NA,NA,imgs/broom.png,NA,NA,NA,NA
1ymgm6qz43e7dwq,2,164,attn_word_selection,1382,353259,non-baseline,0,chulmo,chulmo,chulni,imgs/broom.png,NA,NA,TRUE,NA
1ymgm6qz43e7dwq,2,168,train,4411,361715,baseline,NA,basni,NA,NA,imgs/ball.png,NA,NA,NA,NA
1ymgm6qz43e7dwq,2,169,attn_pic_selection,4023,365739,baseline,1,basni,NA,NA,imgs/ball.png,imgs/clock.png,1,TRUE,NA
1ymgm6qz43e7dwq,2,173,train,692,370467,baseline,NA,basni,NA,NA,imgs/ball.png,NA,NA,NA,NA
1ymgm6qz43e7dwq,2,174,attn_word_selection,1254,371723,baseline,1,basni,basni,basmo,imgs/ball.png,NA,NA,TRUE,NA
1ymgm6qz43e7dwq,2,178,train,2999,378755,non-baseline,NA,ruzmo,NA,NA,imgs/bell.png,NA,NA,NA,NA
1ymgm6qz43e7dwq,2,179,attn_word_selection,990,379747,non-baseline,0,ruzmo,ruzmo,ruzni,imgs/bell.png,NA,NA,TRUE,NA
1ymgm6qz43e7dwq,2,183,train,584,384363,baseline,NA,basni,NA,NA,imgs/ball.png,NA,NA,NA,NA
1ymgm6qz43e7dwq,2,184,attn_pic_selection,839,385203,baseline,1,basni,NA,NA,imgs/ball.png,imgs/car.png,1,TRUE,NA
1ymgm6qz43e7dwq,2,188,train,472,389707,baseline,NA,wakni,NA,NA,imgs/rocket.png,NA,NA,NA,NA
1ymgm6qz43e7dwq,2,189,attn_pic_selection,759,390468,baseline,0,wakni,NA,NA,imgs/rocket.png,imgs/ball.png,0,TRUE,NA
1ymgm6qz43e7dwq,2,193,train,703,395203,non-baseline,NA,thapmo,NA,NA,imgs/toilet.png,NA,NA,NA,NA
1ymgm6qz43e7dwq,2,194,attn_word_selection,2326,397531,non-baseline,1,thapmo,thapmo,thapni,imgs/toilet.png,NA,NA,TRUE,NA
1ymgm6qz43e7dwq,2,198,train,760,402323,baseline,NA,jesni,NA,NA,imgs/car.png,NA,NA,NA,NA
1ymgm6qz43e7dwq,2,199,attn_pic_selection,847,403171,baseline,1,jesni,NA,NA,imgs/car.png,imgs/ball.png,1,TRUE,NA
1ymgm6qz43e7dwq,2,203,train,1398,408588,non-baseline,NA,tobmo,NA,NA,imgs/ruler.png,NA,NA,NA,NA
1ymgm6qz43e7dwq,2,204,attn_word_selection,1549,410139,non-baseline,1,tobmo,tobmo,tobni,imgs/ruler.png,NA,NA,TRUE,NA
1ymgm6qz43e7dwq,2,208,train,668,414827,baseline,NA,wakni,NA,NA,imgs/rocket.png,NA,NA,NA,NA
1ymgm6qz43e7dwq,2,209,attn_pic_selection,815,415643,baseline,1,wakni,NA,NA,imgs/rocket.png,imgs/ball.png,1,TRUE,NA
1ymgm6qz43e7dwq,2,213,train,1605,421268,non-baseline,NA,shoofmo,NA,NA,imgs/curtain.png,NA,NA,NA,NA
1ymgm6qz43e7dwq,2,214,attn_word_selection,1006,422275,non-baseline,1,shoofmo,shoofmo,shoofni,imgs/curtain.png,NA,NA,TRUE,NA
1ymgm6qz43e7dwq,2,218,train,491,426803,baseline,NA,jesni,NA,NA,imgs/car.png,NA,NA,NA,NA
1ymgm6qz43e7dwq,2,219,attn_pic_selection,823,427627,baseline,0,jesni,NA,NA,imgs/car.png,imgs/clock.png,0,TRUE,NA
1ymgm6qz43e7dwq,2,223,train,862,432524,non-baseline,NA,chulmo,NA,NA,imgs/broom.png,NA,NA,NA,NA
1ymgm6qz43e7dwq,2,224,attn_word_selection,919,433445,non-baseline,0,chulmo,chulmo,chulni,imgs/broom.png,NA,NA,TRUE,NA
1ymgm6qz43e7dwq,2,228,train,1092,438579,baseline,NA,dukni,NA,NA,imgs/clock.png,NA,NA,NA,NA
1ymgm6qz43e7dwq,2,229,attn_word_selection,1192,439773,baseline,1,dukni,dukni,dukmo,imgs/clock.png,NA,NA,TRUE,NA
1ymgm6qz43e7dwq,2,233,train,925,444731,baseline,NA,basni,NA,NA,imgs/ball.png,NA,NA,NA,NA
1ymgm6qz43e7dwq,2,234,attn_word_selection,1150,445883,baseline,1,basni,basni,basmo,imgs/ball.png,NA,NA,TRUE,NA
1ymgm6qz43e7dwq,2,238,train,793,450715,non-baseline,NA,shoofmo,NA,NA,imgs/curtain.png,NA,NA,NA,NA
1ymgm6qz43e7dwq,2,239,attn_pic_selection,774,451491,non-baseline,0,shoofmo,NA,NA,imgs/curtain.png,imgs/bell.png,0,TRUE,NA
1ymgm6qz43e7dwq,2,243,train,587,456099,non-baseline,NA,loormo,NA,NA,imgs/hammer.png,NA,NA,NA,NA
1ymgm6qz43e7dwq,2,244,attn_pic_selection,879,456979,non-baseline,1,loormo,NA,NA,imgs/hammer.png,imgs/curtain.png,1,TRUE,NA
1ymgm6qz43e7dwq,2,246,between_block,3486,462483,NA,NA,NA,NA,NA,NA,NA,NA,NA,NA
1ymgm6qz43e7dwq,2,249,train,937,465444,baseline,NA,jesni,NA,NA,imgs/car.png,NA,NA,NA,NA
1ymgm6qz43e7dwq,2,250,attn_word_selection,1501,466947,baseline,1,jesni,jesni,jesmo,imgs/car.png,NA,NA,TRUE,NA
1ymgm6qz43e7dwq,2,254,train,791,471763,baseline,NA,basni,NA,NA,imgs/ball.png,NA,NA,NA,NA
1ymgm6qz43e7dwq,2,255,attn_pic_selection,798,472563,baseline,0,basni,NA,NA,imgs/ball.png,imgs/car.png,0,TRUE,NA
1ymgm6qz43e7dwq,2,259,train,572,477179,non-baseline,NA,puthmo,NA,NA,imgs/scissors.png,NA,NA,NA,NA
1ymgm6qz43e7dwq,2,260,attn_pic_selection,1735,478915,non-baseline,1,puthmo,NA,NA,imgs/scissors.png,imgs/bell.png,1,TRUE,NA
1ymgm6qz43e7dwq,2,264,train,748,483700,baseline,NA,wakni,NA,NA,imgs/rocket.png,NA,NA,NA,NA
1ymgm6qz43e7dwq,2,265,attn_word_selection,1468,485171,baseline,1,wakni,wakni,wakmo,imgs/rocket.png,NA,NA,TRUE,NA
1ymgm6qz43e7dwq,2,269,train,535,489739,non-baseline,NA,ruzmo,NA,NA,imgs/bell.png,NA,NA,NA,NA
1ymgm6qz43e7dwq,2,270,attn_pic_selection,911,490651,non-baseline,0,ruzmo,NA,NA,imgs/bell.png,imgs/curtain.png,0,TRUE,NA
1ymgm6qz43e7dwq,2,274,train,724,495403,baseline,NA,wakni,NA,NA,imgs/rocket.png,NA,NA,NA,NA
1ymgm6qz43e7dwq,2,275,attn_word_selection,1038,496443,baseline,0,wakni,wakni,wakmo,imgs/rocket.png,NA,NA,TRUE,NA
1ymgm6qz43e7dwq,2,279,train,665,501155,baseline,NA,dukni,NA,NA,imgs/clock.png,NA,NA,NA,NA
1ymgm6qz43e7dwq,2,280,attn_word_selection,1022,502179,baseline,1,dukni,dukni,dukmo,imgs/clock.png,NA,NA,TRUE,NA
1ymgm6qz43e7dwq,2,284,train,862,507083,baseline,NA,basni,NA,NA,imgs/ball.png,NA,NA,NA,NA
1ymgm6qz43e7dwq,2,285,attn_word_selection,878,507963,baseline,0,basni,basni,basmo,imgs/ball.png,NA,NA,TRUE,NA
1ymgm6qz43e7dwq,2,289,train,709,512699,non-baseline,NA,tobmo,NA,NA,imgs/ruler.png,NA,NA,NA,NA
1ymgm6qz43e7dwq,2,290,attn_pic_selection,919,513620,non-baseline,1,tobmo,NA,NA,imgs/ruler.png,imgs/cellphone.png,1,TRUE,NA
1ymgm6qz43e7dwq,2,294,train,708,518355,non-baseline,NA,tobmo,NA,NA,imgs/ruler.png,NA,NA,NA,NA
1ymgm6qz43e7dwq,2,295,attn_word_selection,1134,519491,non-baseline,1,tobmo,tobmo,tobni,imgs/ruler.png,NA,NA,TRUE,NA
1ymgm6qz43e7dwq,2,299,train,716,524251,baseline,NA,dukni,NA,NA,imgs/clock.png,NA,NA,NA,NA
1ymgm6qz43e7dwq,2,300,attn_word_selection,1327,525580,baseline,0,dukni,dukni,dukmo,imgs/clock.png,NA,NA,TRUE,NA
1ymgm6qz43e7dwq,2,304,train,483,530091,baseline,NA,wakni,NA,NA,imgs/rocket.png,NA,NA,NA,NA
1ymgm6qz43e7dwq,2,305,attn_word_selection,1103,531196,baseline,0,wakni,wakni,wakmo,imgs/rocket.png,NA,NA,TRUE,NA
1ymgm6qz43e7dwq,2,309,train,725,535939,non-baseline,NA,shoofmo,NA,NA,imgs/curtain.png,NA,NA,NA,NA
1ymgm6qz43e7dwq,2,310,attn_word_selection,790,536731,non-baseline,0,shoofmo,shoofmo,shoofni,imgs/curtain.png,NA,NA,TRUE,NA
1ymgm6qz43e7dwq,2,314,train,944,541699,non-baseline,NA,puthmo,NA,NA,imgs/scissors.png,NA,NA,NA,NA
1ymgm6qz43e7dwq,2,315,attn_pic_selection,670,542371,non-baseline,1,puthmo,NA,NA,imgs/scissors.png,imgs/bell.png,1,TRUE,NA
1ymgm6qz43e7dwq,2,319,train,520,546907,baseline,NA,dukni,NA,NA,imgs/clock.png,NA,NA,NA,NA
1ymgm6qz43e7dwq,2,320,attn_pic_selection,1223,548131,baseline,1,dukni,NA,NA,imgs/clock.png,imgs/ball.png,1,TRUE,NA
1ymgm6qz43e7dwq,2,324,train,686,552843,baseline,NA,basni,NA,NA,imgs/ball.png,NA,NA,NA,NA
1ymgm6qz43e7dwq,2,325,attn_pic_selection,759,553603,baseline,0,basni,NA,NA,imgs/ball.png,imgs/car.png,0,TRUE,NA
1ymgm6qz43e7dwq,2,329,train,636,558260,non-baseline,NA,shoofmo,NA,NA,imgs/curtain.png,NA,NA,NA,NA
1ymgm6qz43e7dwq,2,330,attn_pic_selection,781,559043,non-baseline,1,shoofmo,NA,NA,imgs/curtain.png,imgs/hammer.png,1,TRUE,NA
1ymgm6qz43e7dwq,2,334,train,1031,564100,non-baseline,NA,yethmo,NA,NA,imgs/cellphone.png,NA,NA,NA,NA
1ymgm6qz43e7dwq,2,335,attn_word_selection,844,564947,non-baseline,0,yethmo,yethmo,yethni,imgs/cellphone.png,NA,NA,TRUE,NA
1ymgm6qz43e7dwq,2,339,train,628,569595,non-baseline,NA,thapmo,NA,NA,imgs/toilet.png,NA,NA,NA,NA
1ymgm6qz43e7dwq,2,340,attn_pic_selection,919,570515,non-baseline,1,thapmo,NA,NA,imgs/toilet.png,imgs/curtain.png,1,TRUE,NA
1ymgm6qz43e7dwq,2,344,train,571,575139,non-baseline,NA,loormo,NA,NA,imgs/hammer.png,NA,NA,NA,NA
1ymgm6qz43e7dwq,2,345,attn_word_selection,966,576107,non-baseline,0,loormo,loormo,loorni,imgs/hammer.png,NA,NA,TRUE,NA
1ymgm6qz43e7dwq,2,349,train,502,580659,non-baseline,NA,yethmo,NA,NA,imgs/cellphone.png,NA,NA,NA,NA
1ymgm6qz43e7dwq,2,350,attn_word_selection,966,581627,non-baseline,0,yethmo,yethmo,yethni,imgs/cellphone.png,NA,NA,TRUE,NA
1ymgm6qz43e7dwq,2,354,train,419,586059,baseline,NA,jesni,NA,NA,imgs/car.png,NA,NA,NA,NA
1ymgm6qz43e7dwq,2,355,attn_pic_selection,575,586635,baseline,1,jesni,NA,NA,imgs/car.png,imgs/clock.png,1,TRUE,NA
1ymgm6qz43e7dwq,2,359,train,701,591347,non-baseline,NA,chulmo,NA,NA,imgs/broom.png,NA,NA,NA,NA
1ymgm6qz43e7dwq,2,360,attn_word_selection,1287,592635,non-baseline,1,chulmo,chulmo,chulni,imgs/broom.png,NA,NA,TRUE,NA
1ymgm6qz43e7dwq,2,364,train,562,597211,baseline,NA,wakni,NA,NA,imgs/rocket.png,NA,NA,NA,NA
1ymgm6qz43e7dwq,2,365,attn_word_selection,1359,598572,baseline,1,wakni,wakni,wakmo,imgs/rocket.png,NA,NA,TRUE,NA
1ymgm6qz43e7dwq,2,369,train,446,603051,baseline,NA,dukni,NA,NA,imgs/clock.png,NA,NA,NA,NA
1ymgm6qz43e7dwq,2,370,attn_word_selection,1534,604587,baseline,1,dukni,dukni,dukmo,imgs/clock.png,NA,NA,TRUE,NA
1ymgm6qz43e7dwq,2,374,train,453,609075,non-baseline,NA,loormo,NA,NA,imgs/hammer.png,NA,NA,NA,NA
1ymgm6qz43e7dwq,2,375,attn_pic_selection,983,610059,non-baseline,1,loormo,NA,NA,imgs/hammer.png,imgs/ruler.png,1,TRUE,NA
1ymgm6qz43e7dwq,2,379,train,771,614851,non-baseline,NA,shoofmo,NA,NA,imgs/curtain.png,NA,NA,NA,NA
1ymgm6qz43e7dwq,2,380,attn_pic_selection,1039,615891,non-baseline,0,shoofmo,NA,NA,imgs/curtain.png,imgs/broom.png,0,TRUE,NA
1ymgm6qz43e7dwq,2,384,train,511,620411,non-baseline,NA,loormo,NA,NA,imgs/hammer.png,NA,NA,NA,NA
1ymgm6qz43e7dwq,2,385,attn_pic_selection,943,621355,non-baseline,0,loormo,NA,NA,imgs/hammer.png,imgs/bell.png,0,TRUE,NA
1ymgm6qz43e7dwq,2,389,train,534,625916,baseline,NA,dukni,NA,NA,imgs/clock.png,NA,NA,NA,NA
1ymgm6qz43e7dwq,2,390,attn_word_selection,1180,627099,baseline,1,dukni,dukni,dukmo,imgs/clock.png,NA,NA,TRUE,NA
1ymgm6qz43e7dwq,2,394,train,428,631563,non-baseline,NA,thapmo,NA,NA,imgs/toilet.png,NA,NA,NA,NA
1ymgm6qz43e7dwq,2,395,attn_word_selection,862,632427,non-baseline,0,thapmo,thapmo,thapni,imgs/toilet.png,NA,NA,TRUE,NA
1ymgm6qz43e7dwq,2,399,train,842,637283,non-baseline,NA,ruzmo,NA,NA,imgs/bell.png,NA,NA,NA,NA
1ymgm6qz43e7dwq,2,400,attn_word_selection,1118,638403,non-baseline,1,ruzmo,ruzmo,ruzni,imgs/bell.png,NA,NA,TRUE,NA
1ymgm6qz43e7dwq,2,404,train,696,643131,baseline,NA,jesni,NA,NA,imgs/car.png,NA,NA,NA,NA
1ymgm6qz43e7dwq,2,405,attn_pic_selection,711,643843,baseline,0,jesni,NA,NA,imgs/car.png,imgs/ball.png,0,TRUE,NA
1ymgm6qz43e7dwq,2,409,train,542,648413,non-baseline,NA,puthmo,NA,NA,imgs/scissors.png,NA,NA,NA,NA
1ymgm6qz43e7dwq,2,410,attn_pic_selection,957,649371,non-baseline,0,puthmo,NA,NA,imgs/scissors.png,imgs/curtain.png,0,TRUE,NA
1ymgm6qz43e7dwq,2,414,train,458,653851,baseline,NA,jesni,NA,NA,imgs/car.png,NA,NA,NA,NA
1ymgm6qz43e7dwq,2,415,attn_word_selection,1102,654955,baseline,0,jesni,jesni,jesmo,imgs/car.png,NA,NA,TRUE,NA
1ymgm6qz43e7dwq,2,419,train,615,659595,non-baseline,NA,ruzmo,NA,NA,imgs/bell.png,NA,NA,NA,NA
1ymgm6qz43e7dwq,2,420,attn_word_selection,990,660587,non-baseline,0,ruzmo,ruzmo,ruzni,imgs/bell.png,NA,NA,TRUE,NA
1ymgm6qz43e7dwq,2,424,train,415,665035,non-baseline,NA,thapmo,NA,NA,imgs/toilet.png,NA,NA,NA,NA
1ymgm6qz43e7dwq,2,425,attn_word_selection,1038,666075,non-baseline,1,thapmo,thapmo,thapni,imgs/toilet.png,NA,NA,TRUE,NA
1ymgm6qz43e7dwq,2,429,train,978,671068,non-baseline,NA,chulmo,NA,NA,imgs/broom.png,NA,NA,NA,NA
1ymgm6qz43e7dwq,2,430,attn_pic_selection,694,671763,non-baseline,1,chulmo,NA,NA,imgs/broom.png,imgs/toilet.png,1,TRUE,NA
1ymgm6qz43e7dwq,2,434,train,689,676475,baseline,NA,jesni,NA,NA,imgs/car.png,NA,NA,NA,NA
1ymgm6qz43e7dwq,2,435,attn_word_selection,870,677347,baseline,0,jesni,jesni,jesmo,imgs/car.png,NA,NA,TRUE,NA
1ymgm6qz43e7dwq,2,439,train,723,682091,baseline,NA,wakni,NA,NA,imgs/rocket.png,NA,NA,NA,NA
1ymgm6qz43e7dwq,2,440,attn_pic_selection,919,683011,baseline,1,wakni,NA,NA,imgs/rocket.png,imgs/ball.png,1,TRUE,NA
1ymgm6qz43e7dwq,2,444,train,778,687827,baseline,NA,basni,NA,NA,imgs/ball.png,NA,NA,NA,NA
1ymgm6qz43e7dwq,2,445,attn_word_selection,1168,688996,baseline,1,basni,basni,basmo,imgs/ball.png,NA,NA,TRUE,NA
1ymgm6qz43e7dwq,2,449,train,1320,694331,baseline,NA,jesni,NA,NA,imgs/car.png,NA,NA,NA,NA
1ymgm6qz43e7dwq,2,450,attn_pic_selection,1167,695499,baseline,0,jesni,NA,NA,imgs/car.png,imgs/rocket.png,0,TRUE,NA
1ymgm6qz43e7dwq,2,454,train,4292,703820,non-baseline,NA,yethmo,NA,NA,imgs/cellphone.png,NA,NA,NA,NA
1ymgm6qz43e7dwq,2,455,attn_pic_selection,1421,705243,non-baseline,0,yethmo,NA,NA,imgs/cellphone.png,imgs/hammer.png,0,TRUE,NA
1ymgm6qz43e7dwq,2,459,train,4400,713675,baseline,NA,basni,NA,NA,imgs/ball.png,NA,NA,NA,NA
1ymgm6qz43e7dwq,2,460,attn_word_selection,1102,714779,baseline,1,basni,basni,basmo,imgs/ball.png,NA,NA,TRUE,NA
1ymgm6qz43e7dwq,2,464,train,2522,721339,baseline,NA,basni,NA,NA,imgs/ball.png,NA,NA,NA,NA
1ymgm6qz43e7dwq,2,465,attn_pic_selection,751,722091,baseline,1,basni,NA,NA,imgs/ball.png,imgs/car.png,1,TRUE,NA
1ymgm6qz43e7dwq,2,469,train,804,726931,non-baseline,NA,chulmo,NA,NA,imgs/broom.png,NA,NA,NA,NA
1ymgm6qz43e7dwq,2,470,attn_pic_selection,1007,727939,non-baseline,0,chulmo,NA,NA,imgs/broom.png,imgs/cellphone.png,0,TRUE,NA
1ymgm6qz43e7dwq,2,474,train,506,732467,baseline,NA,wakni,NA,NA,imgs/rocket.png,NA,NA,NA,NA
1ymgm6qz43e7dwq,2,475,attn_pic_selection,1663,734131,baseline,0,wakni,NA,NA,imgs/rocket.png,imgs/ball.png,0,TRUE,NA
1ymgm6qz43e7dwq,2,479,train,532,738683,baseline,NA,dukni,NA,NA,imgs/clock.png,NA,NA,NA,NA
1ymgm6qz43e7dwq,2,480,attn_word_selection,998,739683,baseline,0,dukni,dukni,dukmo,imgs/clock.png,NA,NA,TRUE,NA
1ymgm6qz43e7dwq,2,484,train,443,744171,non-baseline,NA,tobmo,NA,NA,imgs/ruler.png,NA,NA,NA,NA
1ymgm6qz43e7dwq,2,485,attn_pic_selection,831,745003,non-baseline,1,tobmo,NA,NA,imgs/ruler.png,imgs/scissors.png,1,TRUE,NA
1ymgm6qz43e7dwq,2,487,between_block,1705,748723,NA,NA,NA,NA,NA,NA,NA,NA,NA,NA
1ymgm6qz43e7dwq,2,490,train,561,751299,non-baseline,NA,puthmo,NA,NA,imgs/scissors.png,NA,NA,NA,NA
1ymgm6qz43e7dwq,2,491,attn_word_selection,894,752195,non-baseline,0,puthmo,puthmo,puthni,imgs/scissors.png,NA,NA,TRUE,NA
1ymgm6qz43e7dwq,2,495,train,561,756787,non-baseline,NA,loormo,NA,NA,imgs/hammer.png,NA,NA,NA,NA
1ymgm6qz43e7dwq,2,496,attn_pic_selection,1023,757811,non-baseline,0,loormo,NA,NA,imgs/hammer.png,imgs/curtain.png,0,TRUE,NA
1ymgm6qz43e7dwq,2,500,train,614,762443,non-baseline,NA,thapmo,NA,NA,imgs/toilet.png,NA,NA,NA,NA
1ymgm6qz43e7dwq,2,501,attn_word_selection,830,763276,non-baseline,0,thapmo,thapmo,thapni,imgs/toilet.png,NA,NA,TRUE,NA
1ymgm6qz43e7dwq,2,505,train,615,767907,non-baseline,NA,tobmo,NA,NA,imgs/ruler.png,NA,NA,NA,NA
1ymgm6qz43e7dwq,2,506,attn_word_selection,814,768723,non-baseline,0,tobmo,tobmo,tobni,imgs/ruler.png,NA,NA,TRUE,NA
1ymgm6qz43e7dwq,2,510,train,497,773236,baseline,NA,basni,NA,NA,imgs/ball.png,NA,NA,NA,NA
1ymgm6qz43e7dwq,2,511,attn_word_selection,1885,775123,baseline,1,basni,basni,basmo,imgs/ball.png,NA,NA,TRUE,NA
1ymgm6qz43e7dwq,2,515,train,605,779756,non-baseline,NA,ruzmo,NA,NA,imgs/bell.png,NA,NA,NA,NA
1ymgm6qz43e7dwq,2,516,attn_pic_selection,1038,780795,non-baseline,1,ruzmo,NA,NA,imgs/bell.png,imgs/ruler.png,1,TRUE,NA
1ymgm6qz43e7dwq,2,520,train,379,785211,baseline,NA,basni,NA,NA,imgs/ball.png,NA,NA,NA,NA
1ymgm6qz43e7dwq,2,521,attn_pic_selection,1006,786219,baseline,1,basni,NA,NA,imgs/ball.png,imgs/car.png,1,TRUE,NA
1ymgm6qz43e7dwq,2,525,train,419,790651,non-baseline,NA,tobmo,NA,NA,imgs/ruler.png,NA,NA,NA,NA
1ymgm6qz43e7dwq,2,526,attn_pic_selection,1030,791683,non-baseline,1,tobmo,NA,NA,imgs/ruler.png,imgs/bell.png,1,TRUE,NA
1ymgm6qz43e7dwq,2,530,train,911,796627,baseline,NA,dukni,NA,NA,imgs/clock.png,NA,NA,NA,NA
1ymgm6qz43e7dwq,2,531,attn_word_selection,1174,797803,baseline,0,dukni,dukni,dukmo,imgs/clock.png,NA,NA,TRUE,NA
1ymgm6qz43e7dwq,2,535,train,398,802235,non-baseline,NA,loormo,NA,NA,imgs/hammer.png,NA,NA,NA,NA
1ymgm6qz43e7dwq,2,536,attn_pic_selection,750,802987,non-baseline,0,loormo,NA,NA,imgs/hammer.png,imgs/broom.png,0,TRUE,NA
1ymgm6qz43e7dwq,2,540,train,396,807403,baseline,NA,dukni,NA,NA,imgs/clock.png,NA,NA,NA,NA
1ymgm6qz43e7dwq,2,541,attn_pic_selection,1198,808603,baseline,0,dukni,NA,NA,imgs/clock.png,imgs/rocket.png,0,TRUE,NA
1ymgm6qz43e7dwq,2,545,train,542,813171,baseline,NA,jesni,NA,NA,imgs/car.png,NA,NA,NA,NA
1ymgm6qz43e7dwq,2,546,attn_word_selection,1094,814267,baseline,0,jesni,jesni,jesmo,imgs/car.png,NA,NA,TRUE,NA
1ymgm6qz43e7dwq,2,550,train,485,818771,baseline,NA,dukni,NA,NA,imgs/clock.png,NA,NA,NA,NA
1ymgm6qz43e7dwq,2,551,attn_pic_selection,3871,822643,baseline,1,dukni,NA,NA,imgs/clock.png,imgs/ball.png,1,TRUE,NA
1ymgm6qz43e7dwq,2,555,train,629,827299,baseline,NA,jesni,NA,NA,imgs/car.png,NA,NA,NA,NA
1ymgm6qz43e7dwq,2,556,attn_word_selection,990,828291,baseline,0,jesni,jesni,jesmo,imgs/car.png,NA,NA,TRUE,NA
1ymgm6qz43e7dwq,2,560,train,875,833196,non-baseline,NA,chulmo,NA,NA,imgs/broom.png,NA,NA,NA,NA
1ymgm6qz43e7dwq,2,561,attn_word_selection,1276,834475,non-baseline,1,chulmo,chulmo,chulni,imgs/broom.png,NA,NA,TRUE,NA
1ymgm6qz43e7dwq,2,565,train,827,839331,non-baseline,NA,tobmo,NA,NA,imgs/ruler.png,NA,NA,NA,NA
1ymgm6qz43e7dwq,2,566,attn_pic_selection,1910,841243,non-baseline,1,tobmo,NA,NA,imgs/ruler.png,imgs/scissors.png,1,TRUE,NA
1ymgm6qz43e7dwq,2,570,train,488,845755,baseline,NA,jesni,NA,NA,imgs/car.png,NA,NA,NA,NA
1ymgm6qz43e7dwq,2,571,attn_word_selection,1126,846882,baseline,0,jesni,jesni,jesmo,imgs/car.png,NA,NA,TRUE,NA
1ymgm6qz43e7dwq,2,575,train,750,851651,non-baseline,NA,shoofmo,NA,NA,imgs/curtain.png,NA,NA,NA,NA
1ymgm6qz43e7dwq,2,576,attn_pic_selection,1463,853115,non-baseline,0,shoofmo,NA,NA,imgs/curtain.png,imgs/ruler.png,0,TRUE,NA
1ymgm6qz43e7dwq,2,580,train,487,857643,baseline,NA,dukni,NA,NA,imgs/clock.png,NA,NA,NA,NA
1ymgm6qz43e7dwq,2,581,attn_word_selection,1006,858651,baseline,0,dukni,dukni,dukmo,imgs/clock.png,NA,NA,TRUE,NA
1ymgm6qz43e7dwq,2,585,train,631,863306,non-baseline,NA,loormo,NA,NA,imgs/hammer.png,NA,NA,NA,NA
1ymgm6qz43e7dwq,2,586,attn_word_selection,782,864091,non-baseline,0,loormo,loormo,loorni,imgs/hammer.png,NA,NA,TRUE,NA
1ymgm6qz43e7dwq,2,590,train,604,868731,non-baseline,NA,yethmo,NA,NA,imgs/cellphone.png,NA,NA,NA,NA
1ymgm6qz43e7dwq,2,591,attn_pic_selection,734,869466,non-baseline,0,yethmo,NA,NA,imgs/cellphone.png,imgs/curtain.png,0,TRUE,NA
1ymgm6qz43e7dwq,2,595,train,630,874131,non-baseline,NA,ruzmo,NA,NA,imgs/bell.png,NA,NA,NA,NA
1ymgm6qz43e7dwq,2,596,attn_word_selection,806,874939,non-baseline,0,ruzmo,ruzmo,ruzni,imgs/bell.png,NA,NA,TRUE,NA
1ymgm6qz43e7dwq,2,600,train,664,879643,non-baseline,NA,thapmo,NA,NA,imgs/toilet.png,NA,NA,NA,NA
1ymgm6qz43e7dwq,2,601,attn_pic_selection,4886,884531,non-baseline,0,thapmo,NA,NA,imgs/toilet.png,imgs/broom.png,0,TRUE,NA
1ymgm6qz43e7dwq,2,605,train,589,889139,non-baseline,NA,yethmo,NA,NA,imgs/cellphone.png,NA,NA,NA,NA
1ymgm6qz43e7dwq,2,606,attn_word_selection,1238,890379,non-baseline,1,yethmo,yethmo,yethni,imgs/cellphone.png,NA,NA,TRUE,NA
1ymgm6qz43e7dwq,2,610,train,491,894907,non-baseline,NA,puthmo,NA,NA,imgs/scissors.png,NA,NA,NA,NA
1ymgm6qz43e7dwq,2,611,attn_word_selection,1246,896155,non-baseline,1,puthmo,puthmo,puthni,imgs/scissors.png,NA,NA,TRUE,NA
1ymgm6qz43e7dwq,2,615,train,583,900755,baseline,NA,basni,NA,NA,imgs/ball.png,NA,NA,NA,NA
1ymgm6qz43e7dwq,2,616,attn_pic_selection,2079,902835,baseline,1,basni,NA,NA,imgs/ball.png,imgs/rocket.png,1,TRUE,NA
1ymgm6qz43e7dwq,2,620,train,449,907291,non-baseline,NA,yethmo,NA,NA,imgs/cellphone.png,NA,NA,NA,NA
1ymgm6qz43e7dwq,2,621,attn_word_selection,1271,908564,non-baseline,1,yethmo,yethmo,yethni,imgs/cellphone.png,NA,NA,TRUE,NA
1ymgm6qz43e7dwq,2,625,train,571,913155,baseline,NA,wakni,NA,NA,imgs/rocket.png,NA,NA,NA,NA
1ymgm6qz43e7dwq,2,626,attn_word_selection,814,913971,baseline,0,wakni,wakni,wakmo,imgs/rocket.png,NA,NA,TRUE,NA
1ymgm6qz43e7dwq,2,630,train,435,918442,baseline,NA,dukni,NA,NA,imgs/clock.png,NA,NA,NA,NA
1ymgm6qz43e7dwq,2,631,attn_word_selection,831,919275,baseline,0,dukni,dukni,dukmo,imgs/clock.png,NA,NA,TRUE,NA
1ymgm6qz43e7dwq,2,635,train,427,923723,baseline,NA,jesni,NA,NA,imgs/car.png,NA,NA,NA,NA
1ymgm6qz43e7dwq,2,636,attn_word_selection,782,924507,baseline,0,jesni,jesni,jesmo,imgs/car.png,NA,NA,TRUE,NA
1ymgm6qz43e7dwq,2,640,train,522,929059,non-baseline,NA,puthmo,NA,NA,imgs/scissors.png,NA,NA,NA,NA
1ymgm6qz43e7dwq,2,641,attn_pic_selection,1918,930979,non-baseline,0,puthmo,NA,NA,imgs/scissors.png,imgs/ruler.png,0,TRUE,NA
1ymgm6qz43e7dwq,2,645,train,467,935467,baseline,NA,wakni,NA,NA,imgs/rocket.png,NA,NA,NA,NA
1ymgm6qz43e7dwq,2,646,attn_word_selection,711,936180,baseline,0,wakni,wakni,wakmo,imgs/rocket.png,NA,NA,TRUE,NA
1ymgm6qz43e7dwq,2,650,train,435,940643,baseline,NA,wakni,NA,NA,imgs/rocket.png,NA,NA,NA,NA
1ymgm6qz43e7dwq,2,651,attn_pic_selection,1407,942051,baseline,0,wakni,NA,NA,imgs/rocket.png,imgs/car.png,0,TRUE,NA
1ymgm6qz43e7dwq,2,655,train,386,946460,baseline,NA,dukni,NA,NA,imgs/clock.png,NA,NA,NA,NA
1ymgm6qz43e7dwq,2,656,attn_word_selection,1037,947499,baseline,1,dukni,dukni,dukmo,imgs/clock.png,NA,NA,TRUE,NA
1ymgm6qz43e7dwq,2,660,train,420,951931,baseline,NA,jesni,NA,NA,imgs/car.png,NA,NA,NA,NA
1ymgm6qz43e7dwq,2,661,attn_word_selection,1014,952947,baseline,0,jesni,jesni,jesmo,imgs/car.png,NA,NA,TRUE,NA
1ymgm6qz43e7dwq,2,665,train,628,957587,baseline,NA,basni,NA,NA,imgs/ball.png,NA,NA,NA,NA
1ymgm6qz43e7dwq,2,666,attn_pic_selection,1039,958627,baseline,1,basni,NA,NA,imgs/ball.png,imgs/clock.png,1,TRUE,NA
1ymgm6qz43e7dwq,2,670,train,541,963178,baseline,NA,basni,NA,NA,imgs/ball.png,NA,NA,NA,NA
1ymgm6qz43e7dwq,2,671,attn_pic_selection,1927,965106,baseline,0,basni,NA,NA,imgs/ball.png,imgs/clock.png,0,TRUE,NA
1ymgm6qz43e7dwq,2,675,train,1019,970146,baseline,NA,wakni,NA,NA,imgs/rocket.png,NA,NA,NA,NA
1ymgm6qz43e7dwq,2,676,attn_pic_selection,1311,971458,baseline,0,wakni,NA,NA,imgs/rocket.png,imgs/clock.png,0,TRUE,NA
1ymgm6qz43e7dwq,2,680,train,571,976059,baseline,NA,wakni,NA,NA,imgs/rocket.png,NA,NA,NA,NA
1ymgm6qz43e7dwq,2,681,attn_pic_selection,1614,977674,baseline,0,wakni,NA,NA,imgs/rocket.png,imgs/clock.png,0,TRUE,NA
1ymgm6qz43e7dwq,2,685,train,567,982275,baseline,NA,basni,NA,NA,imgs/ball.png,NA,NA,NA,NA
1ymgm6qz43e7dwq,2,686,attn_pic_selection,775,983051,baseline,0,basni,NA,NA,imgs/ball.png,imgs/clock.png,0,TRUE,NA
1ymgm6qz43e7dwq,2,690,train,563,987627,baseline,NA,wakni,NA,NA,imgs/rocket.png,NA,NA,NA,NA
1ymgm6qz43e7dwq,2,691,attn_word_selection,862,988490,baseline,0,wakni,wakni,wakmo,imgs/rocket.png,NA,NA,TRUE,NA
1ymgm6qz43e7dwq,2,695,train,491,993010,non-baseline,NA,ruzmo,NA,NA,imgs/bell.png,NA,NA,NA,NA
1ymgm6qz43e7dwq,2,696,attn_word_selection,838,993851,non-baseline,0,ruzmo,ruzmo,ruzni,imgs/bell.png,NA,NA,TRUE,NA
1ymgm6qz43e7dwq,2,700,train,668,998530,non-baseline,NA,shoofmo,NA,NA,imgs/curtain.png,NA,NA,NA,NA
1ymgm6qz43e7dwq,2,701,attn_pic_selection,2407,1000938,non-baseline,1,shoofmo,NA,NA,imgs/curtain.png,imgs/scissors.png,1,TRUE,NA
1ymgm6qz43e7dwq,2,705,train,800,1005770,non-baseline,NA,chulmo,NA,NA,imgs/broom.png,NA,NA,NA,NA
1ymgm6qz43e7dwq,2,706,attn_pic_selection,1495,1007266,non-baseline,0,chulmo,NA,NA,imgs/broom.png,imgs/ruler.png,0,TRUE,NA
1ymgm6qz43e7dwq,2,710,train,523,1011812,baseline,NA,jesni,NA,NA,imgs/car.png,NA,NA,NA,NA
1ymgm6qz43e7dwq,2,711,attn_word_selection,924,1012738,baseline,1,jesni,jesni,jesmo,imgs/car.png,NA,NA,TRUE,NA
1ymgm6qz43e7dwq,2,715,train,2701,1019466,non-baseline,NA,thapmo,NA,NA,imgs/toilet.png,NA,NA,NA,NA
1ymgm6qz43e7dwq,2,716,attn_word_selection,830,1020298,non-baseline,1,thapmo,thapmo,thapni,imgs/toilet.png,NA,NA,TRUE,NA
1ymgm6qz43e7dwq,2,720,train,498,1024818,non-baseline,NA,chulmo,NA,NA,imgs/broom.png,NA,NA,NA,NA
1ymgm6qz43e7dwq,2,721,attn_word_selection,1014,1025835,non-baseline,1,chulmo,chulmo,chulni,imgs/broom.png,NA,NA,TRUE,NA
1ymgm6qz43e7dwq,2,725,train,538,1030394,non-baseline,NA,shoofmo,NA,NA,imgs/curtain.png,NA,NA,NA,NA
1ymgm6qz43e7dwq,2,726,attn_pic_selection,1800,1032196,non-baseline,0,shoofmo,NA,NA,imgs/curtain.png,imgs/bell.png,0,TRUE,NA
1ymgm6qz43e7dwq,2,728,post_training,6526,1040730,NA,NA,NA,NA,NA,NA,NA,NA,NA,NA
1ymgm6qz43e7dwq,2,729,prac_word_selection,1934,1042666,non-baseline,0,yethmo,yethmo,yethni,imgs/cellphone.png,NA,NA,TRUE,NA
1ymgm6qz43e7dwq,2,731,prac_pic_selection,2139,1046818,non-baseline,0,ruzmo,NA,NA,imgs/bell.png,imgs/hammer.png,0,TRUE,NA
1ymgm6qz43e7dwq,2,733,prac_pic_selection,1309,1050139,baseline,1,dukni,NA,NA,imgs/clock.png,imgs/rocket.png,1,TRUE,NA
1ymgm6qz43e7dwq,2,735,prac_word_selection,1637,1053786,baseline,1,basni,basni,basmo,imgs/ball.png,NA,NA,TRUE,NA
1ymgm6qz43e7dwq,2,739,prac_word_selection,1159,1060155,non-baseline,0,puthmo,puthmo,puthni,imgs/scissors.png,NA,NA,TRUE,NA
1ymgm6qz43e7dwq,2,741,prac_pic_selection,1369,1063539,non-baseline,1,tobmo,NA,NA,imgs/ruler.png,imgs/toilet.png,1,TRUE,NA
